timestamp(unix),attitude_roll(radians),attitude_pitch(radians),attitude_yaw(radians),rotation_rate_x(radians/s),rotation_rate_y(radians/s),rotation_rate_z(radians/s),gravity_x(G),gravity_y(G),gravity_z(G),user_acc_x(G),user_acc_y(G),user_acc_z(G),magnetic_field_x(microteslas),magnetic_field_y(microteslas),magnetic_field_z(microteslas),latitude(degree),longitude(degree),altitude(meter),speed(m/s),course(degree),timestamp(unix)
1484000403.277879,0.011327,0.375880,-1.148243,-0.879737,-0.060429,-0.415376,0.010536,-0.367092,-0.930125,0.004799,-0.044682,0.150340,-21.458481,80.282837,-14.141785,,,,,,
,,,,,,,,,,,,,,,,33.759143,-118.389637,319.667358,-1.000000,-1.000000,1484000403.260691
1484000403.297868,0.016860,0.358837,-1.155853,-0.800258,0.257575,-0.306311,0.015786,-0.351186,-0.936173,-0.013283,-0.073192,0.077454,-21.903595,81.184692,-13.396973,,,,,,
,,,,,,,,,,,,,,,,33.759203,-118.389405,312.195435,0.490000,286.875000,1484000364.000079
1484000403.317887,0.025787,0.347325,-1.161042,-0.404628,0.406444,-0.278357,0.024245,-0.340384,-0.939974,0.128465,-0.007409,-0.045073,-21.903595,81.184692,-13.396973,,,,,,
1484000403.337876,0.040587,0.344420,-1.175559,0.053819,0.441947,-1.001734,0.038192,-0.337651,-0.940496,0.252747,0.139607,0.004278,-21.893890,83.060608,-12.731262,,,,,,
1484000403.357896,0.061388,0.346467,-1.209825,0.222302,0.530292,-1.910093,0.057704,-0.339577,-0.938807,0.289037,0.127876,0.224710,-21.892044,83.435486,-12.808167,,,,,,
1484000403.377885,0.090505,0.346581,-1.245857,0.018828,0.968469,-1.288271,0.085007,-0.339684,-0.936690,0.091415,-0.226585,0.222945,-21.745132,82.835083,-12.954956,,,,,,
1484000403.397874,0.105456,0.342946,-1.253730,-0.172593,0.213936,0.001107,0.099131,-0.336263,-0.936536,0.035116,-0.249339,0.074888,-21.517502,83.359741,-12.957275,,,,,,
1484000403.417893,0.095907,0.340293,-1.250675,-0.160309,-0.785028,0.119997,0.090269,-0.333763,-0.938325,0.028826,-0.110481,0.136109,-21.517502,83.359741,-12.957275,,,,,,
1484000403.437882,0.070112,0.329309,-1.248694,-0.876894,-1.362343,0.032817,0.066290,-0.323389,-0.943941,0.118768,0.080515,-0.082899,-20.243423,83.207336,-13.254578,,,,,,
1484000403.457902,0.045683,0.302914,-1.248550,-1.532380,-1.239507,-0.083749,0.043588,-0.298302,-0.953476,0.512656,0.243569,0.089767,-22.036880,84.411621,-12.213318,,,,,,
1484000403.477891,0.014212,0.266095,-1.238615,-2.083057,-1.565783,0.802143,0.013711,-0.262965,-0.964708,0.118293,-0.319554,0.237962,-23.672379,87.190857,-11.029663,,,,,,
1484000403.497911,-0.009498,0.223656,-1.214058,-1.967615,-0.184093,1.263030,-0.009262,-0.221796,-0.975049,-0.151230,-0.509191,0.520001,-25.081436,90.269653,-9.922180,,,,,,
1484000403.517900,0.011444,0.202724,-1.195300,-0.400723,2.074303,0.751168,0.011209,-0.201338,-0.979458,-0.242990,-0.141725,0.503475,-25.081436,90.269653,-9.922180,,,,,,
1484000403.537919,0.069911,0.208389,-1.181166,0.474549,3.493971,0.645233,0.068343,-0.206884,-0.975976,-0.103133,0.004415,0.311577,-25.067291,92.971558,-8.660645,,,,,,
1484000403.557908,0.133711,0.213686,-1.173945,-0.121508,2.921250,0.193562,0.130281,-0.212064,-0.968533,-0.202561,-0.026263,0.209744,-21.323395,91.765686,-8.799011,,,,,,
1484000403.577928,0.175912,0.192551,-1.171778,-1.595712,1.642291,-0.222448,0.171772,-0.191363,-0.966372,-0.126560,0.063022,0.110842,-19.079010,90.711243,-9.465393,,,,,,
1484000403.597917,0.197089,0.150350,-1.173996,-2.200533,0.827492,-0.717860,0.193607,-0.149784,-0.969578,-0.232501,0.253330,0.169178,-17.948044,91.835632,-8.794312,,,,,,
1484000403.617936,0.217334,0.104604,-1.188649,-1.963574,1.121186,-1.485826,0.214448,-0.104413,-0.971138,-0.332933,0.404233,0.314553,-17.948044,91.835632,-8.794312,,,,,,
1484000403.637925,0.260408,0.065995,-1.219151,-1.110050,2.925392,-2.035298,0.256914,-0.065947,-0.964182,-0.246233,0.405623,0.595895,-17.633911,94.536987,-7.532288,,,,,,
1484000403.657945,0.348486,0.051510,-1.248725,0.128968,5.043856,-1.357010,0.341022,-0.051487,-0.938644,-0.132785,0.234196,0.615692,-17.386658,98.666443,-4.327576,,,,,,
1484000403.677934,0.467146,0.046046,-1.279496,0.510749,6.255706,-1.793309,0.449862,-0.046030,-0.891911,-0.278537,0.539881,0.595890,-14.387680,98.437317,-4.096985,,,,,,
1484000403.697953,0.608023,0.032210,-1.330864,0.851096,7.492415,-3.055598,0.570949,-0.032205,-0.820353,-0.114910,0.817620,0.695552,-10.717712,97.382629,-3.561157,,,,,,
1484000403.717942,0.777092,0.003120,-1.400698,1.301532,8.812469,-3.884575,0.701205,-0.003120,-0.712952,0.368024,0.688514,0.532029,-10.717712,97.382629,-3.561157,,,,,,
1484000403.737962,0.942109,-0.041722,-1.476045,1.394456,7.803059,-4.308211,0.808096,0.041710,-0.587572,0.932123,0.681617,-0.061552,-7.645279,96.705444,-1.978210,,,,,,
1484000403.757951,1.069155,-0.100807,-1.543178,1.219628,6.029716,-4.286236,0.872343,0.100636,-0.478424,0.684114,0.578227,-0.079025,-4.945053,96.480408,0.726990,,,,,,
1484000403.777970,1.172000,-0.170053,-1.606224,1.405486,5.426617,-4.678736,0.908237,0.169235,-0.382709,0.404157,0.591813,0.363849,-1.997314,100.459534,6.411499,,,,,,
1484000403.797959,1.269233,-0.248906,-1.667270,1.375265,5.658931,-4.771500,0.925447,0.246344,-0.287860,0.491805,0.446161,0.538013,-2.580170,103.614502,9.169861,,,,,,
1484000403.817979,1.362732,-0.341998,-1.714384,0.842062,4.873540,-5.388689,0.921768,0.335370,-0.194604,0.663345,0.729144,0.103997,-2.580170,103.614502,9.169861,,,,,,
1484000403.837968,1.419732,-0.451791,-1.747299,0.421439,2.727904,-5.727248,0.889421,0.436577,-0.135391,0.784407,0.367362,-0.227447,-3.538589,106.694458,11.553040,,,,,,
1484000403.857987,1.443290,-0.550544,-1.768511,0.103049,1.279115,-4.511144,0.845322,0.523151,-0.108372,0.714065,-0.172015,-0.038295,-6.439285,111.204102,15.051147,,,,,,
1484000403.877976,1.463873,-0.630546,-1.775866,-0.345909,1.201447,-4.003701,0.803093,0.589586,-0.086198,0.253349,0.113356,0.056123,-12.090454,120.593262,18.820679,,,,,,
1484000403.897996,1.489167,-0.718345,-1.770902,-0.679761,1.137501,-4.563768,0.750389,0.658139,-0.061390,0.151970,0.292788,-0.275264,-14.924484,123.600281,20.676453,,,,,,
1484000403.917985,1.504295,-0.810099,-1.774551,0.193672,0.714109,-4.540715,0.687903,0.724355,-0.045814,0.488962,0.157267,-0.629326,-14.924484,123.600281,20.676453,,,,,,
1484000403.938005,1.485090,-0.897505,-1.806778,0.937347,-0.095879,-4.411574,0.621274,0.781774,-0.053378,0.587223,0.021144,-0.673780,-19.180740,127.134888,22.827393,,,,,,
1484000403.957994,1.434665,-0.979687,-1.854191,0.881219,-0.847180,-4.137246,0.552127,0.830323,-0.075629,0.673642,-0.223923,-0.423028,-21.267334,129.763794,23.336121,,,,,,
1484000403.978013,1.379037,-1.046444,-1.901285,0.618811,-0.462094,-2.942128,0.491476,0.865648,-0.095418,0.842936,-0.448107,-0.282222,-29.649658,133.301331,23.305847,,,,,,
1484000403.998002,1.331583,-1.076742,-1.962616,1.500502,0.629917,-1.191027,0.460696,0.880418,-0.112356,1.049482,-0.476258,-0.398905,-30.922821,133.678162,23.227051,,,,,,
1484000404.018022,1.276881,-1.072649,-2.036898,1.829388,0.262974,0.296281,0.457310,0.878469,-0.138419,1.195705,-0.644918,-0.497567,-30.922821,133.678162,23.227051,,,,,,
1484000404.038011,1.224200,-1.042125,-2.084568,1.396117,-1.063628,1.463504,0.474392,0.863478,-0.171339,1.140674,-0.655592,-0.314653,-31.602997,132.777100,21.880554,,,,,,
1484000404.058030,1.180747,-0.997478,-2.093689,0.774697,-2.063550,2.328273,0.501682,0.840106,-0.206248,0.987942,-0.728671,0.142344,-31.012283,131.123169,19.864685,,,,,,
1484000404.078019,1.163518,-0.949349,-2.070790,0.101242,-1.489956,2.479785,0.534589,0.813037,-0.230621,0.552707,-0.572284,0.589416,-30.265884,130.520325,18.668762,,,,,,
1484000404.098039,1.185509,-0.906140,-2.033764,-0.264260,0.380614,2.418708,0.571572,0.787129,-0.231805,0.217246,-0.469853,0.614602,-28.245590,129.616699,18.301331,,,,,,
1484000404.118028,1.233843,-0.866939,-2.000818,-0.581282,1.188297,1.945244,0.610771,0.762351,-0.213961,-0.117668,-0.084617,0.480715,-28.245590,129.616699,18.301331,,,,,,
1484000404.138047,1.298065,-0.859409,-1.935219,-2.326980,0.550217,0.509887,0.628754,0.757457,-0.175863,-0.408051,0.053167,0.589987,-26.002197,128.337646,17.861084,,,,,,
1484000404.158036,1.361900,-0.860950,-1.872863,-1.663210,1.221597,0.550870,0.637549,0.758462,-0.135154,-0.468665,-0.230417,0.675131,-24.656006,127.585571,17.791931,,,,,,
1484000404.178056,1.422292,-0.842557,-1.842680,-0.228604,2.026266,1.455163,0.658231,0.746347,-0.098475,-0.322553,-0.663568,0.369792,-24.501923,128.262451,19.213745,,,,,,
1484000404.198045,1.473133,-0.801179,-1.839531,0.314164,2.864588,2.310593,0.692545,0.718177,-0.067852,-0.023798,-0.197379,0.362896,-21.583817,126.759949,20.425659,,,,,,
1484000404.218034,1.523631,-0.748661,-1.853746,0.832482,2.986527,2.752026,0.731786,0.680659,-0.034540,0.070567,-0.080881,0.022226,-21.583817,126.759949,20.425659,,,,,,
1484000404.238053,1.562388,-0.693274,-1.871027,0.538208,2.232331,2.770796,0.769131,0.639059,-0.006467,0.416538,0.039072,-0.229937,-18.294144,124.803284,19.315369,,,,,,
1484000404.258035,1.602495,-0.635676,-1.876413,0.167606,2.321163,3.065068,0.804267,0.593721,0.025503,0.440851,0.155653,-0.489111,-14.782196,122.247314,18.808411,,,,,,
1484000404.278055,1.635488,-0.577340,-1.907197,1.746355,2.587933,2.746068,0.836165,0.545797,0.054168,0.382280,0.727320,-0.747772,-11.197098,119.316162,18.303406,,,,,,
1484000404.298044,1.655518,-0.539621,-1.955827,1.848901,2.011362,1.615964,0.854827,0.513810,0.072596,0.259950,0.318251,-0.161555,-5.836060,111.729980,16.249390,,,,,,
1484000404.318063,1.670292,-0.517496,-1.993442,1.282242,1.497272,1.177465,0.864763,0.494706,0.086326,0.298201,0.084335,0.054605,-5.836060,111.729980,16.249390,,,,,,
1484000404.338053,1.681310,-0.496199,-2.016974,0.743351,0.816371,1.133765,0.874034,0.476086,0.096987,0.362080,0.015369,0.095243,-4.050400,109.024902,14.615601,,,,,,
1484000404.358072,1.683993,-0.479651,-2.028476,0.253672,0.412270,0.722824,0.881478,0.461469,0.100209,0.141929,0.061342,0.025051,-2.258163,107.521423,14.100830,,,,,,
1484000404.378061,1.701821,-0.470694,-2.036478,0.353393,1.355102,0.384216,0.883614,0.453505,0.116442,-0.287301,0.211137,-0.016924,-1.367752,105.644531,13.736572,,,,,,
1484000404.398081,1.728755,-0.479670,-2.042848,0.361848,1.494523,-0.994580,0.876103,0.461487,0.139550,-0.512531,0.625565,-0.346322,-0.470886,104.968933,14.191284,,,,,,
1484000404.418070,1.739007,-0.516005,-2.048798,0.641285,-0.056049,-2.179509,0.857521,0.493409,0.145621,-0.500221,0.643477,-0.594061,-0.470886,104.968933,14.191284,,,,,,
1484000404.438089,1.724725,-0.577000,-2.045999,0.183543,-0.985611,-3.420657,0.828194,0.545512,0.128499,-0.349159,0.368642,-0.186849,-0.612595,106.545410,15.008179,,,,,,
1484000404.458078,1.730861,-0.646647,-2.033993,-0.024658,0.972347,-3.505909,0.787906,0.602514,0.127204,-0.071094,-0.274633,0.097070,-2.695740,109.849426,15.663513,,,,,,
1484000404.478098,1.794662,-0.710756,-2.009348,-0.535585,2.923116,-3.287952,0.738958,0.652407,0.168247,0.124049,-0.471590,0.129284,-5.976898,113.530640,16.540161,,,,,,
1484000404.498087,1.807770,-0.768523,-1.998849,0.998470,-1.610928,-2.603678,0.698846,0.695074,0.168779,0.036628,-0.050543,0.087523,-7.982208,117.212585,19.143738,,,,,,
1484000404.518106,1.774033,-0.823301,-2.006041,0.598358,-0.983773,-2.673945,0.665812,0.733394,0.137212,0.272939,0.214421,0.273951,-7.982208,117.212585,19.143738,,,,,,
1484000404.538095,1.766553,-0.874522,-2.004572,0.439494,-0.111803,-2.335068,0.629114,0.767237,0.124751,-0.082987,-0.065226,-0.021357,-12.008804,121.868896,19.339478,,,,,,
1484000404.558115,1.777345,-0.914497,-2.008257,0.621985,1.128180,-1.833711,0.597219,0.792256,0.125139,-0.155828,-0.150364,0.119261,-13.948532,123.897278,19.626404,,,,,,
1484000404.578104,1.793818,-0.955129,-2.025826,1.135663,1.685896,-1.974035,0.563201,0.816388,0.127731,-0.015441,-0.046338,0.141739,-15.591446,125.250671,20.292175,,,,,,
1484000404.598123,1.806869,-1.005256,-2.052407,1.348146,1.719033,-2.481564,0.521009,0.844299,0.125333,0.043093,-0.058716,-0.038602,-15.812836,126.000610,19.988098,,,,,,
1484000404.618112,1.811087,-1.065451,-2.082139,1.547566,1.307147,-2.882963,0.470200,0.875008,0.115211,0.001754,-0.165459,-0.149131,-15.812836,126.000610,19.988098,,,,,,
1484000404.638132,1.791642,-1.130403,-2.123800,1.703155,0.629163,-2.958844,0.415942,0.904584,0.093382,-0.040209,-0.222943,-0.180342,-18.356064,127.428284,19.227173,,,,,,
1484000404.658121,1.752050,-1.191663,-2.170022,1.408810,-0.198510,-2.734331,0.364052,0.928986,0.066718,-0.056939,-0.237442,-0.192359,-20.153824,127.954834,18.471802,,,,,,
1484000404.678140,1.685395,-1.248407,-2.224310,1.299207,-1.139045,-2.662430,0.314756,0.948481,0.036229,-0.019971,-0.208094,-0.140157,-22.474884,128.782654,18.014160,,,,,,
1484000404.698129,1.604162,-1.303604,-2.275800,0.721591,-1.750160,-2.767962,0.263878,0.964516,0.008808,-0.009575,-0.107659,0.004513,-24.871216,129.609863,17.106384,,,,,,
1484000404.718149,1.515407,-1.362692,-2.331350,0.638417,-1.755854,-3.117966,0.206289,0.978424,-0.011438,-0.005895,-0.038391,-0.073187,-24.871216,129.609863,17.106384,,,,,,
1484000404.738138,1.346713,-1.428651,-2.471322,0.691789,-1.265513,-3.614956,0.138125,0.989914,-0.031480,0.009672,-0.010544,-0.075377,-27.568100,130.288147,16.574036,,,,,,
1484000404.758157,0.977024,-1.493861,-2.839731,0.455389,0.639188,-3.771044,0.063704,0.997042,-0.043003,0.003236,0.204771,0.096576,-33.563034,131.272522,16.860107,,,,,,
1484000404.778147,-0.215256,-1.523281,2.199047,0.103249,3.503642,-3.954069,-0.010145,0.998871,-0.046401,-0.036104,0.909866,0.144927,-35.811417,131.650085,16.329773,,,,,,
1484000404.798167,-1.029462,-1.467825,1.304651,0.248616,3.979632,-4.147692,-0.088093,0.994703,-0.052965,0.020954,0.718188,-0.189863,-36.339401,131.124695,15.581604,,,,,,
1484000404.818155,-1.123914,-1.394322,1.130443,0.929128,3.863931,-3.502120,-0.158319,0.984469,-0.075869,0.211542,0.098707,-0.090086,-36.339401,131.124695,15.581604,,,,,,
1484000404.838175,-1.088127,-1.333607,1.101185,1.071548,2.606119,-2.398158,-0.208129,0.972002,-0.109061,0.148665,-0.005739,-0.069741,-37.246353,129.849487,14.461670,,,,,,
1484000404.858164,-1.075249,-1.313565,1.097789,-0.019649,-0.353973,0.191435,-0.223801,0.967098,-0.120972,-0.458724,0.065281,-0.187438,-37.640228,126.395264,11.253357,,,,,,
1484000404.878183,-1.090408,-1.330050,1.116931,-0.062267,-2.178664,0.712568,-0.211442,0.971160,-0.110183,-0.414688,0.060151,-0.148041,-37.566513,126.169739,10.954651,,,,,,
1484000404.898172,-1.094244,-1.331794,1.152572,0.583331,-1.569542,0.207162,-0.210357,0.971575,-0.108594,-0.158906,-0.194338,0.179502,-38.385483,127.296997,11.697754,,,,,,
1484000404.918192,-1.054093,-1.325787,1.215765,0.891529,-0.904243,0.030690,-0.210899,0.970135,-0.119831,-0.077202,-0.080181,0.103581,-38.385483,127.296997,11.697754,,,,,,
1484000404.938181,-1.016859,-1.316039,1.274189,0.839576,-1.046841,-0.081691,-0.214325,0.967725,-0.132568,0.005111,-0.024014,-0.019639,-39.061234,127.147949,11.697510,,,,,,
1484000404.958200,-0.993790,-1.305852,1.321143,0.765668,-1.138756,-0.110547,-0.219461,0.965107,-0.142847,0.090570,-0.035862,0.026880,-39.366928,126.023315,11.552612,,,,,,
1484000404.978189,-0.971564,-1.296152,1.367540,0.807961,-1.127865,-0.012444,-0.223952,0.962522,-0.152962,0.175582,-0.046323,0.063347,-39.970337,125.422974,10.729736,,,,,,
1484000404.998178,-0.946953,-1.287717,1.417091,0.786594,-1.155731,0.066792,-0.226702,0.960200,-0.163163,0.222734,-0.008952,0.073884,-40.722290,125.048889,10.580505,,,,,,
1484000405.018198,-0.926039,-1.280985,1.460700,0.627283,-0.975632,0.108742,-0.228401,0.958298,-0.171750,0.200340,0.010406,0.111676,-40.722290,125.048889,10.580505,,,,,,
1484000405.038188,-0.911239,-1.276673,1.492878,0.442702,-0.678942,0.111741,-0.229098,0.957057,-0.177642,0.122775,0.014074,0.157897,-41.099731,124.598877,10.207153,,,,,,
1484000405.058206,-0.895703,-1.273483,1.519650,0.396175,-0.443677,0.113818,-0.228693,0.956127,-0.183086,0.039011,-0.023708,0.174435,-42.001602,124.225220,10.207703,,,,,,
1484000405.078195,-0.879180,-1.269267,1.546629,0.492800,-0.505411,0.056251,-0.228739,0.954884,-0.189409,-0.037633,-0.046497,0.144792,-41.928436,123.924072,9.534302,,,,,,
1484000405.098215,-0.864425,-1.261657,1.574467,0.600640,-0.617944,-0.060338,-0.231441,0.952596,-0.197474,-0.046681,-0.024282,0.143779,-42.378555,123.924377,9.308594,,,,,,
1484000405.118204,-0.851098,-1.252212,1.602819,0.657146,-0.753318,-0.076511,-0.235544,0.949680,-0.206463,-0.017111,-0.043430,0.130215,-42.378555,123.924377,9.308594,,,,,,
1484000405.138223,-0.842495,-1.242127,1.629905,0.658279,-0.899788,-0.096961,-0.240896,0.946473,-0.214846,0.028005,-0.024689,0.165957,-42.907562,123.100525,9.536987,,,,,,
1484000405.158212,-0.837347,-1.231932,1.655293,0.647116,-0.976317,-0.100244,-0.246942,0.943133,-0.222531,0.094293,0.010480,0.234845,-43.283905,122.875427,9.087524,,,,,,
1484000405.178232,-0.833783,-1.222107,1.680791,0.652786,-1.038940,-0.059932,-0.252997,0.939821,-0.229627,0.160025,0.045332,0.198743,-44.038223,122.051086,8.715515,,,,,,
1484000405.198221,-0.829824,-1.213077,1.706318,0.612773,-0.978813,-0.024581,-0.258337,0.936698,-0.236346,0.161932,0.058969,0.200076,-44.416626,121.376465,8.643311,,,,,,
1484000405.218240,-0.828531,-1.205409,1.728219,0.501756,-0.968108,-0.022908,-0.263317,0.933985,-0.241528,0.111110,0.055395,0.318020,-44.416626,121.376465,8.643311,,,,,,
1484000405.238230,-0.833232,-1.199316,1.745253,0.393844,-1.093266,-0.014089,-0.268656,0.931791,-0.244110,0.071283,0.071383,0.408859,-45.241394,121.378357,9.092041,,,,,,
1484000405.258217,-0.847417,-1.195240,1.757565,0.230959,-1.437606,0.009215,-0.274936,0.930304,-0.242786,0.073199,0.108301,0.473377,-45.166443,121.378174,9.017151,,,,,,
1484000405.278206,-0.878668,-1.195417,1.759767,-0.137867,-1.777389,0.045734,-0.282261,0.930368,-0.233972,0.091542,0.195364,0.478464,-46.065567,121.529907,9.240051,,,,,,
1484000405.298226,-0.936774,-1.203252,1.735277,-0.907371,-1.710849,0.027716,-0.289490,0.933213,-0.212860,0.076371,0.328033,0.381256,-48.233704,122.735596,10.880798,,,,,,
1484000405.318215,-1.026781,-1.218912,1.670582,-1.653734,-1.320350,0.039594,-0.294911,0.938725,-0.178392,0.033329,0.341320,0.272523,-48.233704,122.735596,10.880798,,,,,,
1484000405.338234,-1.154466,-1.240650,1.561008,-2.414266,-1.225204,0.160944,-0.296490,0.945995,-0.131101,-0.072056,0.163533,0.309675,-49.272964,124.690063,12.819458,,,,,,
1484000405.358223,-1.323077,-1.262664,1.407926,-2.662232,-1.082101,0.333256,-0.294022,0.952902,-0.074362,-0.234024,0.100016,0.119971,-50.009903,127.094238,14.906311,,,,,,
1484000405.378243,-1.494800,-1.280108,1.251679,-2.236837,-1.298366,0.574128,-0.285785,0.958047,-0.021761,-0.269391,0.276313,-0.109343,-50.742188,130.325134,18.039062,,,,,,
1484000405.398232,-1.656182,-1.293793,1.124607,-1.468318,-2.455306,0.734610,-0.272478,0.961879,0.023322,-0.120909,0.447270,-0.218894,-51.612488,135.734314,23.335754,,,,,,
1484000405.418251,-1.801957,-1.305288,1.043619,-0.756857,-3.922598,0.760392,-0.255420,0.964959,0.060118,-0.053113,0.490027,-0.204573,-51.612488,135.734314,23.335754,,,,,,
1484000405.438240,-1.951068,-1.316760,0.975589,-0.718069,-4.001941,0.824486,-0.233360,0.967906,0.093281,-0.047081,0.365056,0.061215,-52.724350,138.065430,26.322388,,,,,,
1484000405.458260,-2.098034,-1.322993,0.876422,-1.126236,-1.431162,0.832918,-0.211967,0.969454,0.123410,-0.131417,0.215239,0.277332,-53.839981,139.646484,29.237854,,,,,,
1484000405.478249,-2.217528,-1.319324,0.744849,-1.682083,1.128937,0.671482,-0.198581,0.968547,0.149940,-0.128980,0.034672,-0.064842,-54.279129,141.526550,32.152771,,,,,,
1484000405.498268,-2.346097,-1.300474,0.589029,-2.414890,0.875270,0.579959,-0.190724,0.963685,0.186911,-0.081416,-0.106294,-0.364539,-53.511856,144.679871,35.138123,,,,,,
1484000405.518257,-2.486022,-1.266776,0.435028,-2.830637,0.167936,0.442036,-0.182492,0.954141,0.237301,-0.104190,-0.211709,-0.343121,-53.511856,144.679871,35.138123,,,,,,
1484000405.538277,-2.589574,-1.223724,0.323481,-2.690689,0.119564,0.133767,-0.178375,0.940373,0.289623,-0.132965,-0.233586,-0.266384,-52.677261,146.406555,37.080750,,,,,,
1484000405.558266,-2.648968,-1.183057,0.256708,-2.159140,0.133911,-0.016357,-0.178817,0.925766,0.333138,-0.126389,-0.253662,-0.243554,-52.746307,147.310852,39.926147,,,,,,
1484000405.578285,-2.683873,-1.149723,0.216901,-1.680646,0.084037,-0.102853,-0.180624,0.912651,0.366665,-0.066736,-0.212623,-0.258648,-52.441162,148.064575,42.697815,,,,,,
1484000405.598274,-2.703667,-1.121407,0.190148,-1.471383,0.344885,-0.092917,-0.184219,0.900713,0.393421,-0.028702,-0.191164,-0.298054,-52.737366,148.667419,44.269348,,,,,,
1484000405.618294,-2.711468,-1.094970,0.169888,-1.326757,0.592536,-0.193918,-0.191009,0.888914,0.416349,0.027512,-0.179625,-0.327467,-52.737366,148.667419,44.269348,,,,,,
1484000405.638283,-2.709057,-1.073295,0.158634,-0.926907,0.618337,-0.205915,-0.200043,0.878778,0.433281,0.057526,-0.295434,-0.294655,-52.281342,149.571167,47.265564,,,,,,
1484000405.658302,-2.698266,-1.061790,0.156531,-0.295736,0.660984,-0.206824,-0.209030,0.873229,0.440201,0.073089,-0.365539,-0.212128,-53.030243,149.723328,47.938660,,,,,,
1484000405.678291,-2.675665,-1.061542,0.167176,0.332839,0.639988,-0.257009,-0.219022,0.873108,0.435559,0.062116,-0.411743,-0.148068,-52.503174,150.098145,48.312561,,,,,,
1484000405.698311,-2.646791,-1.071718,0.188217,0.904543,0.460178,-0.163392,-0.227275,0.878024,0.421213,0.051188,-0.462924,-0.029062,-52.952911,150.173523,48.086487,,,,,,
1484000405.718300,-2.611973,-1.093591,0.217705,1.535778,0.428389,-0.007574,-0.232040,0.888282,0.396374,0.081039,-0.379264,0.187427,-52.952911,150.173523,48.086487,,,,,,
1484000405.738320,-2.568357,-1.125929,0.257494,1.968483,0.411845,0.153873,-0.233395,0.902668,0.361549,0.106610,-0.197666,0.375405,-52.496902,151.520630,46.655457,,,,,,
1484000405.758309,-2.518183,-1.156594,0.296383,1.405756,1.057637,0.198085,-0.234959,0.915438,0.326754,0.093021,0.260832,0.701719,-52.571945,151.668335,45.079590,,,,,,
1484000405.778328,-2.484662,-1.163963,0.302065,-0.310841,1.431263,0.105017,-0.241652,0.918378,0.313346,0.078734,0.818942,0.913690,-52.344711,152.265747,43.576904,,,,,,
1484000405.798317,-2.507214,-1.155077,0.264755,-0.814219,-0.038474,0.457998,-0.239351,0.914826,0.325275,0.171114,0.423599,0.526272,-51.741959,152.864197,43.124878,,,,,,
1484000405.818306,-2.549683,-1.152681,0.232802,-0.346725,-0.805096,0.452448,-0.226548,0.913856,0.336963,0.019792,-0.135581,0.273725,-51.741959,152.864197,43.124878,,,,,,
1484000405.838326,-2.579877,-1.148783,0.204722,-0.551280,0.245301,0.298194,-0.218168,0.912266,0.346660,-0.185564,-0.434345,0.276249,-50.908829,154.216980,45.819336,,,,,,
1484000405.858315,-2.580170,-1.147976,0.195179,0.282815,0.207185,0.050439,-0.218459,0.911935,0.347347,-0.382494,-0.386316,-0.178051,-50.081284,154.592773,47.168762,,,,,,
1484000405.878334,-2.569724,-1.165936,0.225417,1.496681,-1.346871,-0.068378,-0.213175,0.919157,0.331219,-0.579687,0.009584,-0.694790,-49.855148,154.669678,48.668701,,,,,,
1484000405.898323,-2.530554,-1.195929,0.284632,2.023454,-0.291262,-0.099017,-0.210066,0.930556,0.299895,-0.512590,0.292207,-0.689681,-49.626175,155.419983,49.115295,,,,,,
1484000405.918343,-2.479504,-1.222789,0.343263,1.290535,-0.596044,-0.028807,-0.209651,0.940054,0.268970,0.006648,0.370966,-0.164249,-49.626175,155.419983,49.115295,,,,,,
1484000405.938332,-2.475216,-1.230826,0.387656,0.635012,-2.502607,-0.517336,-0.206125,0.942764,0.262121,0.040323,-0.022309,-0.221914,-49.399002,155.869446,48.963379,,,,,,
1484000405.958351,-2.472147,-1.237795,0.446702,1.192397,-2.418072,-0.561659,-0.202847,0.945065,0.256329,-0.080204,-0.267468,-0.283383,-50.295166,156.547119,49.858704,,,,,,
1484000405.978340,-2.381327,-1.261981,0.566474,2.795807,-0.354007,-0.683664,-0.209442,0.952694,0.220244,-0.035248,-0.075787,-0.245894,-50.142899,156.849182,51.357361,,,,,,
1484000405.998360,-2.159340,-1.300452,0.791487,4.065385,0.399994,-0.468189,-0.222130,0.963679,0.148261,0.015969,0.091299,-0.439566,-50.964798,157.524597,50.827759,,,,,,
1484000406.018349,-1.887560,-1.334867,1.082189,3.807918,-1.270647,0.182542,-0.222118,0.972297,0.072811,0.238551,0.202812,-0.475093,-50.964798,157.524597,50.827759,,,,,,
1484000406.038368,-1.649913,-1.348992,1.371459,3.107803,-2.521643,-0.196426,-0.219302,0.975502,0.017387,0.317324,0.351967,-0.345634,-51.562897,158.196106,47.898499,,,,,,
1484000406.058357,-1.483190,-1.338742,1.589697,2.001174,-2.002264,-0.588329,-0.229096,0.973196,-0.020122,0.339813,0.135798,-0.115666,-52.240280,158.042297,44.673218,,,,,,
1484000406.078377,-1.405060,-1.323126,1.686402,0.778618,0.096515,-0.678354,-0.241786,0.969486,-0.040444,0.207073,0.051052,0.204552,-53.138214,158.419189,45.044983,,,,,,
1484000406.098366,-1.382851,-1.309319,1.680062,-0.315494,2.107179,-0.701779,-0.253956,0.966009,-0.048300,-0.014126,-0.052099,0.304968,-54.190125,158.045654,44.970337,,,,,,
1484000406.118385,-1.368661,-1.297529,1.641118,-0.282253,2.637133,-0.629792,-0.264385,0.962894,-0.054181,-0.085743,-0.108799,0.116101,-54.190125,158.045654,44.970337,,,,,,
1484000406.138374,-1.324572,-1.288393,1.644394,0.425401,1.569741,-0.310684,-0.270259,0.960389,-0.067923,-0.060612,-0.091401,0.015524,-54.938446,158.273315,46.018066,,,,,,
1484000406.158394,-1.262170,-1.281407,1.700505,1.084166,-0.243295,-0.010615,-0.271884,0.958418,-0.086680,-0.006040,-0.149870,0.021693,-57.260239,158.803467,47.136902,,,,,,
1484000406.178383,-1.200958,-1.273226,1.783036,1.312460,-1.124549,-0.003595,-0.273374,0.956052,-0.105981,0.018522,-0.094907,0.182565,-58.232269,159.330933,47.807800,,,,,,
1484000406.198403,-1.148182,-1.262414,1.859893,1.224594,-0.884241,-0.100897,-0.276814,0.952826,-0.124486,0.045445,-0.022635,0.285192,-59.727905,160.158813,48.251465,,,,,,
1484000406.218392,-1.100780,-1.249457,1.919601,1.056865,-0.211470,-0.231900,-0.281588,0.948813,-0.143043,0.038684,-0.013404,0.322547,-59.727905,160.158813,48.251465,,,,,,
1484000406.238411,-1.055279,-1.235153,1.965259,0.966265,0.247479,-0.306514,-0.286570,0.944198,-0.162378,-0.032003,0.017181,0.275949,-61.746704,161.288574,49.367798,,,,,,
1484000406.258397,-1.011829,-1.219034,2.006345,1.055611,0.161268,-0.366976,-0.292113,0.938767,-0.182720,-0.029176,0.006149,0.324352,-64.666504,162.268860,49.958496,,,,,,
1484000406.278417,-0.981081,-1.201259,2.042871,0.973424,-0.400999,-0.400278,-0.300179,0.932495,-0.200863,0.077782,0.098389,0.224087,-70.953201,164.903687,50.235840,,,,,,
1484000406.298406,-0.968875,-1.184105,2.072221,0.907556,-0.865467,-0.423098,-0.310846,0.926162,-0.213539,0.174906,0.236619,0.379830,-74.172882,165.958618,50.300781,,,,,,
1484000406.318425,-0.970702,-1.169284,2.086577,0.425071,-0.656268,-0.461387,-0.322529,0.920471,-0.220699,0.249913,0.247559,0.418346,-74.172882,165.958618,50.300781,,,,,,
1484000406.338414,-0.984861,-1.161596,2.077140,-0.100390,-0.006979,-0.403249,-0.331508,0.917439,-0.220017,0.177638,0.243297,0.496277,-78.149139,165.812988,49.245544,,,,,,
1484000406.358434,-1.001944,-1.158774,2.056198,-0.400457,-0.002267,-0.303911,-0.337399,0.916313,-0.215716,0.104107,0.196099,0.431841,-81.081116,164.614441,47.297119,,,,,,
1484000406.378423,-1.046814,-1.162167,2.018675,-0.964153,-0.837423,-0.236842,-0.344040,0.917666,-0.198808,0.087662,0.197995,0.295701,-82.169464,157.778564,38.929688,,,,,,
1484000406.398442,-1.135859,-1.170311,1.944626,-1.831210,-1.092218,-0.375665,-0.353567,0.920872,-0.164271,0.172201,0.284954,0.125712,-79.873978,152.293823,34.760498,,,,,,
1484000406.418431,-1.278612,-1.178294,1.815726,-2.885980,-1.319920,-0.587913,-0.366290,0.923955,-0.110178,0.262744,0.284572,0.190271,-79.873978,152.293823,34.760498,,,,,,
1484000406.438451,-1.475620,-1.181055,1.629862,-3.786889,-0.998839,-0.447565,-0.378229,0.925007,-0.036108,0.225687,0.280940,0.221593,-76.304474,146.582703,30.894470,,,,,,
1484000406.458440,-1.660422,-1.177838,1.431269,-3.677167,0.424175,0.041555,-0.381386,0.923780,0.034274,-0.003685,0.408953,0.230344,-70.705948,141.471558,29.053406,,,,,,
1484000406.478459,-1.798020,-1.176960,1.273327,-2.473598,0.152850,0.581898,-0.373870,0.923444,0.086445,-0.008347,0.444095,-0.198216,-57.391830,134.326050,28.734070,,,,,,
1484000406.498448,-1.891228,-1.182853,1.186910,-0.995494,-1.237935,0.874440,-0.359031,0.925689,0.119151,0.215354,0.364808,-0.559123,-52.224976,132.447021,31.226257,,,,,,
1484000406.518468,-1.983937,-1.199668,1.136617,-0.483887,-2.930221,1.221548,-0.332154,0.931919,0.145606,0.248704,0.307019,-0.658637,-52.224976,132.447021,31.226257,,,,,,
1484000406.538457,-2.115865,-1.214555,1.064739,-1.047239,-3.068937,1.253775,-0.298217,0.937214,0.180821,0.258178,0.304348,-0.418217,-50.051193,131.775208,35.507812,,,,,,
1484000406.558476,-2.250750,-1.219318,0.955596,-1.565302,-0.528925,1.346562,-0.267718,0.938865,0.216472,0.215167,0.272729,-0.043453,-49.899109,131.781189,39.633057,,,,,,
1484000406.578465,-2.349725,-1.217567,0.823331,-1.864768,2.117980,1.558014,-0.246187,0.938260,0.243022,0.098649,0.276171,0.031423,-51.095139,132.164185,43.754333,,,,,,
1484000406.598485,-2.432099,-1.211624,0.678962,-2.009275,2.876721,1.654187,-0.228985,0.936188,0.266680,0.013714,0.222992,-0.260287,-53.489258,133.145691,45.695862,,,,,,
1484000406.618474,-2.508560,-1.197585,0.536952,-2.216416,2.680799,1.489807,-0.215699,0.931161,0.293960,-0.061660,0.128073,-0.484146,-53.489258,133.145691,45.695862,,,,,,
1484000406.638463,-2.580725,-1.173372,0.406899,-2.478806,2.334771,1.263266,-0.205878,0.922061,0.327747,-0.087289,-0.088946,-0.613377,-53.633514,134.271179,45.914978,,,,,,
1484000406.658483,-2.636832,-1.140082,0.293828,-2.633287,2.411127,1.018611,-0.201912,0.908668,0.365451,-0.058403,-0.266654,-0.564624,-54.156036,134.796570,45.611572,,,,,,
1484000406.678472,-2.670675,-1.103830,0.204475,-2.400265,2.287045,0.803341,-0.204248,0.892938,0.401178,-0.078482,-0.370889,-0.508875,-54.301208,135.697754,46.281860,,,,,,
1484000406.698491,-2.687743,-1.074213,0.138760,-1.727089,1.894975,0.657950,-0.208878,0.879216,0.428194,-0.154861,-0.466816,-0.471696,-54.070465,136.822693,46.501587,,,,,,
1484000406.718480,-2.695258,-1.059484,0.093325,-0.781248,1.481753,0.698141,-0.211222,0.872103,0.441386,-0.197500,-0.591143,-0.401255,-54.070465,136.822693,46.501587,,,,,,
1484000406.738500,-2.692942,-1.061595,0.064122,0.099619,1.383340,0.650773,-0.211445,0.873134,0.439236,-0.160168,-0.627406,-0.307949,-54.142883,137.347717,46.423828,,,,,,
1484000406.758489,-2.673592,-1.076374,0.054722,0.837301,1.372977,0.472768,-0.214059,0.880243,0.423499,-0.088111,-0.568124,-0.213568,-53.990601,137.871582,45.746460,,,,,,
1484000406.778508,-2.636214,-1.102332,0.066588,1.543161,1.344302,0.279983,-0.218597,0.892263,0.395073,-0.054734,-0.467687,-0.077476,-53.688889,138.319458,44.694702,,,,,,
1484000406.798497,-2.572989,-1.135539,0.105576,2.015249,1.495141,0.061748,-0.227036,0.906762,0.355299,-0.062621,-0.320351,0.023805,-53.837631,138.692871,43.492554,,,,,,
1484000406.818517,-2.490413,-1.169439,0.158472,1.859847,1.859967,0.127921,-0.236794,0.920532,0.310726,-0.038490,-0.186767,0.218266,-53.837631,138.692871,43.492554,,,,,,
1484000406.838506,-2.429825,-1.183853,0.178961,-0.105395,2.205840,0.139035,-0.246481,0.926067,0.285740,-0.050821,0.190922,0.790783,-53.765808,138.535583,38.693542,,,,,,
1484000406.858525,-2.447050,-1.157803,0.115394,-2.355452,1.843311,0.104343,-0.256879,0.915924,0.308378,0.411726,1.246705,1.630984,-53.391388,138.607239,36.818726,,,,,,
1484000406.878514,-2.493431,-1.144812,0.052973,-0.463935,-0.271531,0.891913,-0.249468,0.910632,0.329415,0.774004,0.953930,0.429817,-53.543259,138.232483,36.820374,,,,,,
1484000406.898534,-2.525775,-1.157732,0.020113,0.252758,0.345192,0.847380,-0.231869,0.915895,0.327678,0.320965,0.054930,0.456258,-53.313721,139.058350,37.641541,,,,,,
1484000406.918523,-2.529319,-1.165776,0.010445,0.131511,-0.313427,0.203023,-0.226465,0.919094,0.322458,-0.150534,0.244617,-0.186258,-53.313721,139.058350,37.641541,,,,,,
1484000406.938542,-2.556911,-1.171540,-0.000093,0.138835,-0.670257,0.409367,-0.214555,0.921350,0.324160,-0.512190,0.253668,-1.242937,-52.108139,140.181396,37.562744,,,,,,
1484000406.958531,-2.567740,-1.177823,-0.014701,0.147986,0.452018,0.311300,-0.207886,0.923775,0.321596,-0.542664,-0.261711,-0.898684,-51.281570,140.480408,37.712463,,,,,,
1484000406.978551,-2.546923,-1.186046,-0.003726,0.693066,0.474170,-0.101271,-0.210272,0.926892,0.310896,-0.262446,-0.519177,-0.626173,-50.980453,140.704956,37.711792,,,,,,
1484000406.998540,-2.486411,-1.196248,0.047423,1.001098,1.379901,-0.807831,-0.222915,0.930673,0.290098,-0.422303,-0.290155,0.108950,-50.605835,140.703247,36.962341,,,,,,
1484000407.018559,-2.354688,-1.206484,0.158489,2.269642,0.912576,-1.179835,-0.252326,0.934369,0.251567,-0.368386,0.072375,-0.144115,-50.605835,140.703247,36.962341,,,,,,
1484000407.038549,-2.204416,-1.232942,0.326753,3.479143,-1.011515,-0.719926,-0.267123,0.943468,0.196248,-0.256574,0.116667,-0.709218,-50.915833,139.048523,33.520142,,,,,,
1484000407.058568,-2.006248,-1.265143,0.560180,4.267972,-1.074999,-0.395782,-0.272835,0.953651,0.126933,0.020119,0.082620,-0.500636,-51.226822,137.095337,31.054504,,,,,,
1484000407.078557,-1.741085,-1.285611,0.853250,4.303833,-0.624673,-0.291799,-0.277266,0.959609,0.047677,0.246932,0.204362,-0.397775,-51.613876,134.917419,28.739807,,,,,,
1484000407.098577,-1.532745,-1.283486,1.092823,2.466753,-1.605710,-0.298966,-0.283169,0.959010,-0.010780,0.419827,0.445730,-0.481621,-51.326233,132.811462,25.075745,,,,,,
1484000407.118566,-1.502191,-1.273580,1.160158,0.354317,-1.181316,-0.481301,-0.292170,0.956156,-0.020076,0.575328,0.165396,0.052242,-51.326233,132.811462,25.075745,,,,,,
1484000407.138585,-1.493435,-1.265068,1.149010,-0.231307,2.434571,-0.402990,-0.300088,0.953628,-0.023262,0.234216,-0.120940,0.585365,-51.638428,130.559204,23.211609,,,,,,
1484000407.158574,-1.412026,-1.258590,1.153964,0.347836,4.128471,-0.246766,-0.303295,0.951658,-0.048563,0.008480,-0.070967,0.276865,-52.541412,129.960571,23.213196,,,,,,
1484000407.178594,-1.316076,-1.254633,1.189709,0.660461,2.255111,0.024315,-0.300890,0.950435,-0.078345,-0.026579,-0.121776,-0.134912,-50.749176,128.678833,20.522278,,,,,,
1484000407.198583,-1.258166,-1.253694,1.233383,0.671198,0.133983,0.195428,-0.296701,0.950143,-0.095903,-0.027533,-0.212060,-0.099318,-49.404266,127.848938,18.653442,,,,,,
1484000407.218602,-1.216299,-1.251509,1.284076,0.894395,-0.453173,0.117468,-0.294372,0.949459,-0.108957,-0.014450,-0.188748,0.178476,-49.404266,127.848938,18.653442,,,,,,
1484000407.238591,-1.166932,-1.244388,1.347928,1.143383,-0.609050,-0.008807,-0.294847,0.947200,-0.126005,-0.019545,-0.076015,0.192807,-48.807724,127.246765,17.757385,,,,,,
1484000407.258605,-1.120342,-1.233240,1.407075,1.081950,-0.316445,-0.155791,-0.298147,0.943567,-0.144189,0.091986,-0.033609,0.097130,-49.263794,126.121155,16.862305,,,,,,
1484000407.278594,-1.073415,-1.220070,1.458002,1.073825,0.093324,-0.224183,-0.301950,0.939124,-0.163931,0.090432,-0.087576,0.134146,-49.120331,124.919312,15.818542,,,,,,
1484000407.298613,-1.023930,-1.203692,1.503846,1.121836,0.427187,-0.330871,-0.306570,0.933370,-0.186640,0.071371,-0.036917,0.241557,-48.975540,123.943054,15.148682,,,,,,
1484000407.318602,-0.981359,-1.186638,1.543825,1.041122,0.082514,-0.319060,-0.311537,0.927114,-0.208337,0.121320,0.020136,0.354929,-48.975540,123.943054,15.148682,,,,,,
1484000407.338622,-0.960206,-1.172243,1.573447,0.750897,-0.519895,-0.242565,-0.317962,0.921624,-0.222509,0.248580,0.101967,0.424490,-48.683685,122.440796,13.881592,,,,,,
1484000407.358611,-0.957071,-1.162220,1.589200,0.417939,-0.498389,-0.242737,-0.324799,0.917687,-0.228814,0.403488,0.169150,0.464471,-48.617432,120.789185,12.914978,,,,,,
1484000407.378630,-0.960242,-1.157097,1.587472,-0.077203,0.244608,-0.208155,-0.329370,0.915640,-0.230475,0.450464,0.242502,0.326956,-48.468094,120.639221,13.065918,,,,,,
1484000407.398619,-0.960236,-1.160137,1.571778,-0.491243,0.884045,0.066951,-0.327087,0.916858,-0.228880,0.227157,0.327298,0.508467,-48.769333,120.414307,12.841614,,,,,,
1484000407.418639,-0.981736,-1.174397,1.538976,-1.325975,-0.002468,0.292849,-0.321027,0.922457,-0.214509,-0.013155,0.388547,0.659928,-48.769333,120.414307,12.841614,,,,,,
1484000407.438628,-1.066392,-1.202591,1.459087,-2.333970,-0.680302,0.519746,-0.315116,0.932975,-0.173955,-0.088571,0.411325,0.328435,-48.470657,120.188354,12.468201,,,,,,
1484000407.458617,-1.203091,-1.234524,1.329730,-2.952288,-0.856581,0.476586,-0.307913,0.943991,-0.118616,-0.202127,0.316049,0.272211,-48.686981,121.765991,14.034973,,,,,,
1484000407.478637,-1.392432,-1.260188,1.147592,-3.108171,-0.669994,0.426733,-0.300789,0.952148,-0.054226,-0.227562,0.214005,0.021405,-49.408234,127.024353,18.957520,,,,,,
1484000407.498626,-1.577179,-1.275704,0.962510,-2.592816,-0.347234,0.655373,-0.290823,0.956775,0.001856,-0.333231,0.403912,-0.250696,-49.244492,129.503235,21.645447,,,,,,
1484000407.518645,-1.732392,-1.287420,0.817450,-1.642256,-1.292349,0.775167,-0.275957,0.960117,0.044986,-0.413680,0.589718,-0.510043,-49.244492,129.503235,21.645447,,,,,,
1484000407.538634,-1.872114,-1.299075,0.728083,-0.817350,-3.730108,0.908018,-0.256298,0.963310,0.079653,-0.460132,0.469170,-0.595293,-48.933487,131.456421,24.111206,,,,,,
1484000407.558654,-2.073397,-1.310841,0.632330,-1.114931,-6.279624,1.073270,-0.225250,0.966401,0.123817,-0.289566,0.322844,-0.271095,-49.599670,133.035217,25.977234,,,,,,
1484000407.578643,-2.306457,-1.310624,0.507884,-1.332244,-4.630550,0.867302,-0.190720,0.966346,0.172633,-0.218856,0.246133,0.347356,-51.607803,135.748108,32.560669,,,,,,
1484000407.598662,-2.451186,-1.306929,0.397306,-0.997190,-0.325123,0.995624,-0.166101,0.965389,0.201086,-0.214286,0.044835,0.296168,-51.150436,136.951538,35.255310,,,,,,
1484000407.618651,-2.536956,-1.302025,0.279736,-1.319864,2.023340,1.137377,-0.150954,0.964098,0.218468,-0.084657,-0.008242,-0.188485,-51.150436,136.951538,35.255310,,,,,,
1484000407.638671,-2.633652,-1.283752,0.140859,-2.056383,1.524356,1.103495,-0.137703,0.959085,0.247374,0.066246,-0.097452,-0.578734,-51.372665,137.403442,36.302734,,,,,,
1484000407.658660,-2.734558,-1.248404,0.017266,-2.604565,0.508224,0.711162,-0.125432,0.948480,0.290951,0.075475,-0.179208,-0.735088,-49.944382,138.076050,36.151489,,,,,,
1484000407.678679,-2.811362,-1.198659,-0.066601,-2.945827,-0.058054,0.290000,-0.117904,0.931552,0.343960,0.022048,-0.336383,-0.646496,-48.435593,139.503662,39.446655,,,,,,
1484000407.698668,-2.857064,-1.144122,-0.119932,-2.840437,0.472753,0.132866,-0.116169,0.910347,0.397207,-0.065014,-0.409309,-0.358724,-48.807831,139.807983,41.919556,,,,,,
1484000407.718688,-2.870476,-1.098120,-0.157817,-2.137252,1.292027,0.185864,-0.121925,0.890353,0.438641,-0.135110,-0.439609,-0.298550,-48.807831,139.807983,41.919556,,,,,,
1484000407.738678,-2.862925,-1.070980,-0.177848,-0.999570,1.147179,-0.019074,-0.131834,0.877671,0.460775,-0.106326,-0.575043,-0.414343,-48.807373,139.735474,43.569946,,,,,,
1484000407.758696,-2.842087,-1.063752,-0.172992,0.073806,0.645167,-0.317582,-0.143274,0.874184,0.463978,-0.071112,-0.754005,-0.453449,-47.904968,140.110657,44.619385,,,,,,
1484000407.778685,-2.813253,-1.073113,-0.148918,0.934551,0.265328,-0.438066,-0.153945,0.878691,0.451889,-0.095994,-0.813643,-0.438247,-48.130371,140.035889,44.544434,,,,,,
1484000407.798705,-2.774628,-1.096821,-0.111097,1.733951,0.331727,-0.398262,-0.163758,0.889761,0.426039,-0.108168,-0.779226,-0.302961,-49.033569,139.510559,43.420654,,,,,,
1484000407.818694,-2.712379,-1.139211,-0.059292,2.844546,1.203154,-0.097341,-0.174083,0.908304,0.380367,-0.103795,-0.570276,0.062412,-49.033569,139.510559,43.420654,,,,,,
1484000407.838713,-2.596039,-1.200897,0.022016,3.676257,2.491611,0.058590,-0.187591,0.932364,0.309043,0.005996,0.065256,0.597619,-48.884247,139.582153,41.320618,,,,,,
1484000407.858702,-2.530549,-1.229823,0.067114,-0.794440,-0.357773,0.340668,-0.191855,0.942430,0.273894,0.187507,1.477706,1.343706,-48.740051,138.752075,38.024902,,,,,,
1484000407.878722,-2.626408,-1.175008,-0.049821,-3.448291,1.862255,0.250269,-0.189951,0.922693,0.335494,0.626246,1.887259,1.802949,-49.646378,137.848022,34.428101,,,,,,
1484000407.898711,-2.649063,-1.151733,-0.109069,-0.611540,1.091630,0.551267,-0.192408,0.913471,0.358540,0.251734,0.171719,0.350323,-48.888840,138.903625,38.923950,,,,,,
1484000407.918730,-2.666937,-1.156415,-0.154848,-0.164064,1.357177,1.145247,-0.184012,0.915366,0.358114,-0.110788,-0.933813,0.147288,-48.888840,138.903625,38.923950,,,,,,
1484000407.938720,-2.670648,-1.171561,-0.170622,1.054750,-0.236359,0.185427,-0.176371,0.921358,0.346399,-0.330679,-0.473696,-0.672433,-48.438705,138.977295,38.474243,,,,,,
1484000407.958739,-2.650793,-1.198299,-0.126864,1.756347,-0.965651,-0.078063,-0.171538,0.931421,0.320982,-0.589723,0.186132,-1.311872,-47.239807,138.824463,37.801819,,,,,,
1484000407.978728,-2.627107,-1.229819,-0.100857,1.252265,0.157767,0.586065,-0.164558,0.942428,0.291118,-0.535195,0.381424,-0.844524,-46.864517,138.972595,36.901611,,,,,,
1484000407.998748,-2.639075,-1.244491,-0.097966,0.536592,-1.343660,-0.040272,-0.154385,0.947233,0.280917,0.021878,-0.064268,-0.506137,-47.017609,138.520325,35.253662,,,,,,
1484000408.018737,-2.644605,-1.237714,-0.067651,-0.354391,-1.429274,-0.793633,-0.155887,0.945039,0.287403,-0.208386,-0.446733,0.389294,-47.017609,138.520325,35.253662,,,,,,
1484000408.038756,-2.576120,-1.246541,0.004105,2.097972,0.722718,-0.735188,-0.170712,0.947888,0.269008,-0.394702,-0.025327,-0.154460,-47.917511,138.447998,36.152649,,,,,,
1484000408.058745,-2.389458,-1.298010,0.187104,4.438848,0.193970,-0.355626,-0.184064,0.963024,0.196736,-0.234637,0.321232,-0.886845,-47.769012,138.221680,35.403992,,,,,,
1484000408.078765,-2.091464,-1.362851,0.513223,5.203460,-1.679059,0.363646,-0.179092,0.978457,0.102700,-0.035416,0.198392,-0.848794,-47.627258,136.867065,32.486023,,,,,,
1484000408.098754,-1.671067,-1.399031,0.993931,4.444686,-3.007183,0.170054,-0.170063,0.985285,0.017110,0.152226,0.099356,-0.604237,-47.940277,134.612244,28.971863,,,,,,
1484000408.118773,-1.346406,-1.391155,1.386316,2.776888,-3.015975,-0.323103,-0.174197,0.983908,-0.039758,0.216663,-0.000815,-0.388221,-47.940277,134.612244,28.971863,,,,,,
1484000408.138762,-1.243032,-1.370720,1.539738,1.006444,-1.850546,-0.753214,-0.188164,0.980051,-0.063981,0.214058,0.100362,0.031251,-48.936523,130.782471,24.789490,,,,,,
1484000408.158782,-1.256153,-1.354406,1.528737,-0.190251,1.198501,-0.758720,-0.204165,0.976679,-0.066447,-0.047574,0.099035,0.658167,-49.767334,129.658203,24.418823,,,,,,
1484000408.178771,-1.221565,-1.342766,1.504999,0.113009,3.411202,-0.573909,-0.212413,0.974114,-0.077352,0.002544,-0.088249,0.287069,-49.470261,129.057922,24.572266,,,,,,
1484000408.198790,-1.157407,-1.332790,1.519386,0.465513,1.619915,-0.284605,-0.215906,0.971810,-0.094711,0.026285,-0.218407,-0.114701,-49.698608,128.531128,23.149597,,,,,,
1484000408.218779,-1.104025,-1.325008,1.569060,0.856592,-0.332375,-0.016518,-0.217292,0.969946,-0.109496,0.070212,-0.192572,-0.082658,-49.698608,128.531128,23.149597,,,,,,
1484000408.238768,-1.047999,-1.315361,1.643580,1.130372,-1.025352,0.013731,-0.218917,0.967553,-0.126158,0.051681,-0.102258,0.077010,-48.580566,127.400513,20.531921,,,,,,
1484000408.258758,-0.996033,-1.302390,1.718877,1.182314,-0.939874,-0.086448,-0.222584,0.964195,-0.144170,0.058949,-0.024864,0.153218,-49.033707,126.800781,20.234253,,,,,,
1484000408.278747,-0.945126,-1.287014,1.783557,1.154831,-0.360414,-0.160348,-0.226951,0.960003,-0.163973,0.068961,-0.031872,0.237566,-49.789291,125.677063,20.313782,,,,,,
1484000408.298766,-0.897941,-1.270727,1.837059,1.074646,-0.177431,-0.189672,-0.231162,0.955316,-0.184216,0.031150,-0.098108,0.291684,-49.567780,125.075256,19.342041,,,,,,
1484000408.318755,-0.862799,-1.254623,1.879783,0.970626,-0.380011,-0.222478,-0.236204,0.950432,-0.202203,-0.011278,-0.075417,0.303582,-49.567780,125.075256,19.342041,,,,,,
1484000408.338775,-0.847017,-1.239991,1.908661,0.740456,-0.686660,-0.262796,-0.243379,0.945781,-0.215092,0.060426,0.010914,0.232823,-49.422592,124.174133,18.746826,,,,,,
1484000408.358764,-0.844818,-1.227698,1.928676,0.633579,-0.966833,-0.220985,-0.251582,0.941717,-0.223329,0.186732,0.057535,0.266679,-50.256241,122.524170,17.928772,,,,,,
1484000408.378783,-0.850221,-1.216528,1.949176,0.623369,-1.347033,-0.157304,-0.260673,0.937901,-0.228893,0.370185,0.112240,0.262844,-51.158905,122.000427,17.855042,,,,,,
1484000408.398773,-0.856455,-1.208603,1.967447,0.411461,-1.000784,-0.054782,-0.267702,0.935122,-0.232126,0.395892,0.272169,0.320124,-51.385239,121.701233,18.156250,,,,,,
1484000408.418792,-0.862056,-1.206012,1.979121,0.115072,-0.803973,0.127344,-0.270836,0.934201,-0.232199,0.203026,0.387744,0.664023,-51.385239,121.701233,18.156250,,,,,,
1484000408.438781,-0.890264,-1.218004,1.969512,-1.040530,-1.036280,0.469495,-0.268550,0.938412,-0.217403,0.036907,0.377872,0.573269,-52.060883,121.552551,18.380920,,,,,,
1484000408.458802,-0.971662,-1.247761,1.902465,-2.109851,-0.854623,0.553616,-0.262155,0.948276,-0.179017,-0.121115,0.328655,0.628541,-53.106171,122.306946,20.250610,,,,,,
1484000408.478790,-1.115563,-1.283902,1.772429,-2.951846,-1.112565,0.601560,-0.254156,0.959127,-0.124416,-0.199824,0.260996,0.329067,-53.095215,124.334412,21.890503,,,,,,
1484000408.498809,-1.345465,-1.317467,1.552674,-3.412345,-0.567742,0.594076,-0.244292,0.968083,-0.055998,-0.246476,0.155635,0.003660,-53.907974,126.514648,24.578308,,,,,,
1484000408.518798,-1.603545,-1.336521,1.288339,-3.156531,0.022572,0.639234,-0.232014,0.972683,0.007601,-0.584072,0.336018,-0.213564,-53.907974,126.514648,24.578308,,,,,,
1484000408.538818,-1.855930,-1.339113,1.040256,-2.496688,-1.059729,0.576564,-0.220345,0.973281,0.064588,-0.859870,0.530259,-0.493634,-53.745346,128.768433,27.267334,,,,,,
1484000408.558807,-2.056571,-1.337616,0.883353,-1.261685,-3.367451,0.583004,-0.204341,0.972936,0.107886,-0.863240,0.554468,-0.622459,-54.027023,131.926453,32.351196,,,,,,
1484000408.578826,-2.247222,-1.336456,0.789038,-0.875892,-5.787660,0.554376,-0.181074,0.972668,0.145360,-0.703600,0.471775,-0.474340,-54.771210,132.831421,34.895508,,,,,,
1484000408.598815,-2.453411,-1.331501,0.704959,-0.861953,-6.056042,0.473718,-0.150538,0.971505,0.183074,-0.317952,0.174384,0.006929,-55.364410,133.812988,38.714722,,,,,,
1484000408.618835,-2.606539,-1.324189,0.637192,-0.697445,-3.170259,0.467876,-0.124471,0.969746,0.209998,-0.202997,-0.060765,0.323189,-55.364410,133.812988,38.714722,,,,,,
1484000408.638824,-2.684327,-1.315356,0.576769,-0.882320,0.373831,0.472560,-0.111553,0.967552,0.226712,-0.247135,-0.184975,0.066378,-55.360748,134.193298,42.237732,,,,,,
1484000408.658843,-2.725322,-1.292127,0.505469,-1.867826,1.481154,0.231039,-0.111228,0.961422,0.251586,-0.016519,-0.176800,-0.351378,-55.356873,134.722046,44.710144,,,,,,
1484000408.678832,-2.770643,-1.245569,0.444069,-2.818012,0.030582,-0.215325,-0.115828,0.947578,0.297792,0.089094,-0.162880,-0.735536,-55.055435,134.947449,45.309448,,,,,,
1484000408.698852,-2.824386,-1.186911,0.406897,-2.989675,-1.333755,-0.467551,-0.116819,0.927217,0.355841,0.058348,-0.198976,-0.734289,-54.906174,134.649475,46.811218,,,,,,
1484000408.718841,-2.862283,-1.133632,0.389442,-2.362732,-0.741278,-0.403227,-0.116720,0.905956,0.406965,-0.047861,-0.285732,-0.314619,-54.906174,134.649475,46.811218,,,,,,
1484000408.738860,-2.870889,-1.098644,0.380234,-1.380274,0.338266,-0.208894,-0.121619,0.890591,0.438242,-0.124765,-0.383923,-0.150065,-55.360550,133.528870,49.291138,,,,,,
1484000408.758849,-2.861117,-1.081785,0.379011,-0.508378,0.585840,-0.242749,-0.130033,0.882798,0.451397,-0.051012,-0.485245,-0.317471,-55.739197,132.631958,50.945068,,,,,,
1484000408.778869,-2.837850,-1.078765,0.393961,0.226160,0.439607,-0.463756,-0.141297,0.881375,0.450792,0.036622,-0.613675,-0.439928,-55.591415,132.181824,51.022583,,,,,,
1484000408.798858,-2.805062,-1.088232,0.421779,0.918428,0.425455,-0.428522,-0.153237,0.885808,0.438022,0.016594,-0.747731,-0.366061,-55.666977,132.106323,50.647827,,,,,,
1484000408.818877,-2.762476,-1.115128,0.457996,2.004290,0.622621,-0.194448,-0.162867,0.897967,0.408815,-0.013311,-0.729937,-0.270479,-55.666977,132.106323,50.647827,,,,,,
1484000408.838867,-2.697816,-1.166651,0.510511,3.254058,0.965479,0.159753,-0.168836,0.919439,0.355143,0.023267,-0.534322,-0.102687,-56.642807,132.031433,49.746704,,,,,,
1484000408.858886,-2.610038,-1.229529,0.584205,3.157495,0.825398,0.333057,-0.169641,0.942331,0.288502,0.064279,-0.013682,0.276638,-56.491547,132.478271,47.794678,,,,,,
1484000408.878875,-2.614913,-1.245265,0.578046,-1.229212,-0.380970,0.612762,-0.160759,0.947481,0.276472,0.290077,1.175017,1.696276,-57.465332,133.148315,43.514832,,,,,,
1484000408.898896,-2.707408,-1.219859,0.499533,-1.304220,-1.187320,0.559257,-0.144617,0.939051,0.311880,0.663416,1.717214,1.716242,-56.938446,133.374817,45.014526,,,,,,
1484000408.918885,-2.750805,-1.217471,0.464617,-0.049143,0.366239,0.459031,-0.131805,0.938227,0.319933,0.113464,0.460256,0.720853,-56.938446,133.374817,45.014526,,,,,,
1484000408.938903,-2.753935,-1.214972,0.422485,-0.689264,2.169335,0.723374,-0.131688,0.937360,0.322513,-0.599986,-0.169202,0.288968,-56.935959,133.751648,46.212646,,,,,,
1484000408.958892,-2.787516,-1.199513,0.376586,-1.077322,-1.035391,0.290175,-0.125796,0.931863,0.340305,-0.906355,-0.136163,-0.737308,-56.557938,134.425049,45.534790,,,,,,
1484000408.978912,-2.844485,-1.192071,0.362193,-0.009887,-2.041720,0.001545,-0.108242,0.929137,0.353537,-0.649540,-0.378645,-1.213813,-55.805649,134.874084,45.608704,,,,,,
1484000408.998901,-2.833603,-1.204366,0.379615,1.152368,0.867836,-0.198009,-0.108612,0.933612,0.341426,-0.486313,-0.699176,-0.469294,-55.504288,134.951477,47.558777,,,,,,
1484000409.018920,-2.750937,-1.240480,0.444950,2.635922,0.609401,-0.571104,-0.123508,0.945940,0.299906,-0.318631,-0.567827,-0.367487,-55.504288,134.951477,47.558777,,,,,,
1484000409.038909,-2.674828,-1.283703,0.550774,2.451221,-2.620615,-0.461557,-0.127425,0.959071,0.252875,-0.193681,0.087194,-0.253684,-55.505356,134.948303,45.458801,,,,,,
1484000409.058898,-2.614160,-1.326279,0.691585,3.091899,-3.909881,-0.742319,-0.121847,0.970254,0.209189,-0.270991,0.323187,-0.622137,-56.258438,134.497070,43.809937,,,,,,
1484000409.078918,-2.434046,-1.378478,0.937994,3.954564,-2.484221,-0.572123,-0.124232,0.981564,0.145255,-0.197011,0.197681,-0.449332,-55.958817,134.347656,44.561096,,,,,,
1484000409.098907,-2.082703,-1.426542,1.338044,4.028043,-2.220755,-0.108244,-0.125327,0.989613,0.070417,0.043830,0.130931,-0.337980,-57.087723,133.746704,42.762451,,,,,,
1484000409.118926,-1.629697,-1.447380,1.853808,3.287133,-3.322848,-0.052003,-0.122890,0.992394,0.007247,0.321193,0.234260,-0.240065,-57.087723,133.746704,42.762451,,,,,,
1484000409.138915,-1.258079,-1.433317,2.291109,2.645196,-2.754827,-0.436822,-0.130400,0.990565,-0.042162,0.326903,0.238836,-0.099028,-56.789658,133.444885,41.864441,,,,,,
1484000409.158935,-1.046448,-1.408073,2.539035,1.956752,-0.968938,-0.378241,-0.140241,0.986790,-0.081108,0.159574,0.094036,-0.035759,-56.867294,132.919983,41.866943,,,,,,
1484000409.178924,-0.924613,-1.384443,2.660094,1.253241,0.730929,-0.420954,-0.147922,0.982686,-0.111563,0.082752,-0.035848,0.028097,-56.869431,132.544189,41.343811,,,,,,
1484000409.198943,-0.863506,-1.367059,2.694423,0.577161,1.616842,-0.511445,-0.153797,0.979317,-0.131470,0.026935,-0.165734,0.035095,-57.624771,131.716736,38.946777,,,,,,
1484000409.218932,-0.839538,-1.354333,2.687674,0.303643,1.386208,-0.510232,-0.159866,0.976663,-0.143429,-0.049546,-0.167032,0.006726,-57.624771,131.716736,38.946777,,,,,,
1484000409.238952,-0.819843,-1.342068,2.689629,0.580364,0.543479,-0.384127,-0.165755,0.973956,-0.154712,-0.103791,-0.153979,0.121143,-57.477829,131.264099,37.374268,,,,,,
1484000409.258935,-0.786583,-1.325630,2.727116,1.043931,-0.624609,-0.235036,-0.171830,0.970097,-0.171424,-0.092192,-0.063939,0.246238,-57.780792,130.738708,36.701416,,,,,,
1484000409.278954,-0.759872,-1.306281,2.780164,1.239546,-1.427625,-0.192884,-0.180088,0.965219,-0.189525,0.017002,-0.022867,0.254177,-57.932205,130.512939,36.102356,,,,,,
1484000409.298944,-0.730913,-1.282311,2.835103,1.434320,-1.028772,-0.311747,-0.189918,0.958676,-0.211829,0.039298,0.044605,0.370002,-58.535767,129.764404,36.480225,,,,,,
1484000409.318963,-0.709345,-1.259497,2.874852,1.110606,-0.667477,-0.311070,-0.199502,0.951936,-0.232414,0.086937,0.167204,0.244667,-58.535767,129.764404,36.480225,,,,,,
1484000409.338952,-0.696199,-1.240903,2.899386,0.909651,-0.470732,-0.295059,-0.207746,0.946077,-0.248556,0.088651,0.019377,0.400671,-58.389938,129.012939,35.659180,,,,,,
1484000409.358972,-0.690148,-1.223912,2.916624,0.784648,-0.561996,-0.360334,-0.216442,0.940437,-0.262168,0.066265,-0.091102,0.416816,-58.468460,128.337646,35.362427,,,,,,
1484000409.378961,-0.704221,-1.209112,2.917832,0.428128,-0.905742,-0.505047,-0.229097,0.935302,-0.269675,0.177812,0.083405,0.292121,-58.696915,127.662781,35.215454,,,,,,
1484000409.398980,-0.728391,-1.199670,2.910428,0.243928,-0.736618,-0.317966,-0.241416,0.931919,-0.270638,0.389670,0.292064,0.196755,-59.449860,127.063965,35.292297,,,,,,
1484000409.418969,-0.732449,-1.192906,2.916277,0.369428,-0.365302,-0.034557,-0.246721,0.929445,-0.274336,0.319841,0.316847,0.403258,-59.449860,127.063965,35.292297,,,,,,
1484000409.438989,-0.732393,-1.191726,2.927357,-0.071439,-0.700582,0.181950,-0.247439,0.929009,-0.275165,0.054156,0.283561,0.576313,-59.374832,127.063965,35.367432,,,,,,
1484000409.458978,-0.770206,-1.207678,2.906410,-1.302134,-0.937596,0.322364,-0.247314,0.934794,-0.254945,-0.078446,0.317724,0.483766,-59.676132,126.765076,35.743469,,,,,,
1484000409.478997,-0.847926,-1.236613,2.842303,-2.057567,-0.874058,0.243630,-0.245969,0.944678,-0.216984,-0.151889,0.266335,0.545857,-59.898911,127.067444,37.166626,,,,,,
1484000409.498986,-0.983365,-1.270998,2.721163,-2.870228,-1.172006,0.211128,-0.245821,0.955396,-0.163678,-0.235457,0.264803,0.375577,-59.745148,127.669495,38.663879,,,,,,
1484000409.519006,-1.195942,-1.303959,2.525760,-3.272225,-1.186125,0.199499,-0.245373,0.964610,-0.096544,-0.291157,0.087926,0.147722,-59.745148,127.669495,38.663879,,,,,,
1484000409.538995,-1.438509,-1.324073,2.298745,-2.810741,-1.166244,0.279483,-0.242094,0.969718,-0.032214,-0.483614,0.219125,-0.114682,-60.117538,127.973328,40.836792,,,,,,
1484000409.559014,-1.634883,-1.334283,2.125527,-1.574368,-1.711933,0.509985,-0.233833,0.972161,0.015006,-0.547325,0.392494,-0.378333,-59.664963,127.980286,45.937378,,,,,,
1484000409.579003,-1.765430,-1.343116,2.050377,-0.486272,-3.799141,0.592005,-0.221456,0.974193,0.043656,-0.395609,0.480718,-0.583893,-59.512802,128.208069,47.961487,,,,,,
1484000409.599023,-1.936168,-1.353192,1.980635,-0.838299,-5.725901,0.676306,-0.201641,0.976417,0.077137,-0.131489,0.381600,-0.289860,-58.610519,128.435242,50.286743,,,,,,
1484000409.619012,-2.166634,-1.350869,1.858800,-1.340503,-5.087835,0.476544,-0.180565,0.975913,0.122431,-0.095420,0.169060,0.124563,-58.610519,128.435242,50.286743,,,,,,
1484000409.639031,-2.343912,-1.346277,1.735929,-1.098211,-1.316353,0.827140,-0.159350,0.974901,0.155483,-0.020948,0.092771,0.416966,-57.258881,128.438049,53.513672,,,,,,
1484000409.659020,-2.458096,-1.338754,1.599358,-1.576036,1.863096,0.883808,-0.145225,0.973199,0.178308,0.002571,0.041724,0.051352,-54.938232,127.017822,58.999329,,,,,,
1484000409.679040,-2.567470,-1.313130,1.445410,-2.468527,1.913903,0.655528,-0.138395,0.966987,0.213969,-0.004885,-0.055122,-0.454157,-55.013626,127.016724,58.249268,,,,,,
1484000409.699029,-2.664525,-1.267184,1.314946,-3.092036,0.994825,0.243574,-0.137280,0.954263,0.265588,-0.029499,-0.154351,-0.771874,-54.866547,126.416809,58.402405,,,,,,
1484000409.719048,-2.744395,-1.210692,1.230810,-3.114301,-0.521068,-0.015812,-0.136310,0.935860,0.324939,-0.056409,-0.308983,-0.717212,-54.866547,126.416809,58.402405,,,,,,
1484000409.739038,-2.804852,-1.158344,1.175136,-2.590602,-0.127001,0.102047,-0.132448,0.916141,0.378344,-0.129072,-0.421908,-0.257113,-54.649597,124.767029,58.786011,,,,,,
1484000409.759057,-2.828212,-1.120990,1.137530,-1.670763,0.827941,0.139999,-0.134036,0.900532,0.413615,-0.114316,-0.458408,-0.222606,-54.067871,120.869812,61.206360,,,,,,
1484000409.779046,-2.824719,-1.100068,1.120811,-0.799237,0.898378,-0.049361,-0.141320,0.891238,0.430956,-0.013236,-0.607883,-0.386629,-54.070908,120.269714,61.134338,,,,,,
1484000409.799066,-2.807995,-1.093323,1.124367,0.010301,0.546820,-0.236496,-0.150473,0.888159,0.434203,0.016562,-0.746404,-0.432006,-54.149445,119.594299,60.837585,,,,,,
1484000409.819055,-2.781988,-1.101226,1.142470,0.821276,0.517844,-0.266854,-0.159238,0.891763,0.423559,-0.032977,-0.753045,-0.313208,-54.149445,119.594299,60.837585,,,,,,
1484000409.839044,-2.735328,-1.125857,1.178025,1.858106,0.940902,-0.239638,-0.170087,0.902637,0.395369,-0.034610,-0.699405,-0.108291,-54.300797,119.368896,60.388489,,,,,,
1484000409.859063,-2.651619,-1.171672,1.238622,3.042132,1.737712,-0.055907,-0.182882,0.921401,0.342890,0.014181,-0.504959,0.187063,-54.972900,119.969604,60.159485,,,,,,
1484000409.879052,-2.535035,-1.226419,1.325102,2.804916,1.408445,0.173902,-0.192453,0.941286,0.277386,0.043328,0.101179,0.686420,-55.933487,123.190979,56.766968,,,,,,
1484000409.899072,-2.579733,-1.225227,1.288252,-2.729531,-0.887757,0.621579,-0.180463,0.940883,0.286658,0.297788,1.835790,2.239145,-57.501938,124.690491,54.882141,,,,,,
1484000409.919061,-2.630616,-1.170873,1.193110,-2.565314,2.857410,0.040101,-0.190403,0.921091,0.339615,0.342426,1.717123,1.365814,-57.501938,124.690491,54.882141,,,,,,
1484000409.939080,-2.633175,-1.153020,1.144240,-0.804248,1.701201,0.729244,-0.197507,0.913993,0.354411,0.087293,-0.308875,0.309102,-57.433304,123.267578,56.389343,,,,,,
1484000409.959069,-2.671819,-1.157043,1.086792,0.124021,-0.357902,1.039750,-0.182001,0.915618,0.358495,-0.155417,-0.972122,-0.425268,-57.435577,122.817566,56.316589,,,,,,
1484000409.979089,-2.688959,-1.178676,1.107076,1.554677,-2.162567,-0.329430,-0.167127,0.924101,0.343666,-0.487078,-0.333128,-1.111442,-56.228256,124.315247,56.010925,,,,,,
1484000409.999078,-2.661842,-1.205287,1.152327,1.520104,0.330351,0.137607,-0.164972,0.933942,0.317075,-0.712729,-0.035993,-1.171186,-55.174805,124.988892,56.159119,,,,,,
1484000410.019097,-2.620435,-1.231867,1.183966,1.335540,0.236493,0.020999,-0.165535,0.943111,0.288339,-0.205146,0.151020,-0.662805,-55.174805,124.988892,56.159119,,,,,,
1484000410.039086,-2.623314,-1.235673,1.216822,-0.330045,-2.901634,-0.689788,-0.162925,0.944370,0.285694,0.097191,0.136243,0.058269,-56.070862,125.814697,55.778625,,,,,,
1484000410.059106,-2.616466,-1.227106,1.267838,0.855340,-0.950453,-0.928816,-0.168928,0.941518,0.291562,-0.061098,-0.054249,0.169010,-56.294067,126.263733,54.876038,,,,,,
1484000410.079095,-2.478992,-1.264292,1.400312,3.710073,1.083832,-0.661804,-0.185614,0.953394,0.237881,-0.225092,0.202825,-0.533382,-55.472260,125.514160,56.006042,,,,,,
1484000410.099114,-2.215655,-1.321198,1.661275,4.832946,0.103889,-0.294672,-0.197410,0.969012,0.148477,-0.179314,0.124036,-0.720254,-55.913727,127.461121,53.595642,,,,,,
1484000410.119103,-1.863056,-1.366067,2.044376,4.753024,-1.704093,0.176003,-0.194682,0.979116,0.058575,0.045512,0.065485,-0.616467,-55.913727,127.461121,53.595642,,,,,,
1484000410.139123,-1.501079,-1.374379,2.468209,3.795491,-3.175973,-0.258366,-0.194683,0.980772,-0.013595,0.189586,0.113176,-0.446519,-56.731308,129.109924,51.936096,,,,,,
1484000410.159112,-1.304742,-1.353327,2.730706,2.253351,-2.588151,-0.714286,-0.208168,0.976447,-0.056729,0.193840,0.049371,-0.168918,-55.752319,130.080811,50.207825,,,,,,
1484000410.179132,-1.230223,-1.328292,2.826635,0.935960,0.134142,-0.935518,-0.226341,0.970740,-0.080211,0.099587,0.003030,0.197643,-55.674133,130.681335,50.579895,,,,,,
1484000410.199121,-1.200878,-1.310134,2.818572,-0.101939,2.731198,-0.859908,-0.240288,0.966219,-0.093176,-0.043053,-0.099825,0.372504,-57.028290,129.932068,49.756592,,,,,,
1484000410.219140,-1.173504,-1.296772,2.783820,-0.107655,2.875396,-0.728515,-0.249531,0.962690,-0.104704,-0.039684,-0.156858,0.101515,-57.028290,129.932068,49.756592,,,,,,
1484000410.239129,-1.138492,-1.285457,2.785810,0.525299,0.770127,-0.356378,-0.255587,0.959566,-0.117931,-0.054120,-0.148089,0.062801,-56.957916,129.253235,47.285095,,,,,,
1484000410.259134,-1.099856,-1.273471,2.839199,1.151977,-1.286208,-0.144898,-0.261073,0.956123,-0.132925,0.055613,-0.024193,0.094366,-57.484695,129.027100,46.010437,,,,,,
1484000410.279123,-1.066272,-1.259624,2.906413,1.228908,-1.441569,-0.165014,-0.268027,0.951975,-0.148002,0.173010,-0.069941,0.276313,-57.636826,128.651550,45.487122,,,,,,
1484000410.299142,-1.022718,-1.242017,2.970413,1.343388,-0.555063,-0.308712,-0.275594,0.946437,-0.168240,0.194783,-0.040263,0.337765,-57.636826,128.651550,45.487122,,,,,,
1484000410.319131,-0.983924,-1.223754,3.017874,1.017467,-0.157631,-0.371451,-0.283208,0.940383,-0.188344,0.235937,0.075105,0.130696,-58.086929,128.578003,46.011780,,,,,,
1484000410.339151,-0.952809,-1.206549,3.050671,1.007170,0.082195,-0.368265,-0.290357,0.934392,-0.206407,0.150373,-0.021367,0.368669,-57.861115,128.801758,45.411011,,,,,,
1484000410.359140,-0.913030,-1.187336,3.092508,1.256468,-0.049451,-0.301808,-0.296073,0.927375,-0.228726,0.081733,-0.058403,0.494793,-57.638000,128.500366,44.662842,,,,,,
1484000410.379159,-0.893047,-1.169980,3.122629,0.735833,-0.602805,-0.341816,-0.303937,0.920743,-0.244653,0.155728,0.082568,0.311913,-57.864532,128.274414,43.838623,,,,,,
1484000410.399148,-0.904380,-1.160011,3.124818,0.183697,-0.637308,-0.390935,-0.313890,0.916807,-0.246855,0.321611,0.173067,0.319319,-58.091232,127.974243,43.464783,,,,,,
1484000410.419168,-0.921932,-1.153072,3.115583,0.025342,-0.295839,-0.350058,-0.323235,0.914015,-0.245146,0.391274,0.258944,0.378431,-58.091232,127.974243,43.464783,,,,,,
1484000410.439157,-0.925711,-1.150047,3.110397,-0.037559,0.165124,-0.063045,-0.326367,0.912783,-0.245584,0.192197,0.354246,0.560114,-58.092651,127.674438,43.616272,,,,,,
1484000410.459176,-0.945184,-1.157559,3.094328,-0.902978,-0.616577,0.180572,-0.325520,0.915826,-0.235161,0.046589,0.406974,0.640312,-58.245728,127.074463,43.469055,,,,,,
1484000410.479165,-1.026538,-1.181600,3.026432,-2.238501,-0.964926,0.334962,-0.324620,0.925214,-0.196471,0.034199,0.448458,0.464903,-57.643295,127.524109,43.842712,,,,,,
1484000410.499185,-1.163179,-1.213456,2.898895,-3.154110,-0.916682,0.351966,-0.321125,0.936830,-0.138662,-0.130138,0.339354,0.483236,-58.318527,127.302673,45.567810,,,,,,
1484000410.519174,-1.360874,-1.242628,2.705789,-3.607274,-0.539620,0.441656,-0.315234,0.946634,-0.067164,-0.164823,0.169226,0.138422,-58.318527,127.302673,45.567810,,,,,,
1484000410.539193,-1.546852,-1.261976,2.506773,-2.880982,0.525920,0.725035,-0.303848,0.952693,-0.007277,-0.270768,0.332677,-0.198351,-57.193588,126.931519,49.171387,,,,,,
1484000410.559182,-1.677989,-1.276873,2.360843,-1.679775,0.018242,0.851472,-0.288047,0.957115,0.030995,-0.415933,0.543740,-0.594701,-56.144669,126.557251,50.749878,,,,,,
1484000410.579202,-1.792604,-1.290010,2.272660,-0.958912,-2.735618,0.880496,-0.270323,0.960838,0.060963,-0.455690,0.493416,-0.728199,-56.369171,126.559082,51.724426,,,,,,
1484000410.599191,-2.010611,-1.301000,2.157582,-1.556709,-6.674187,1.037731,-0.241169,0.963825,0.113483,-0.171077,0.343807,-0.249439,-55.768906,126.485046,53.000732,,,,,,
1484000410.619210,-2.277840,-1.296809,2.016791,-1.639527,-5.727679,0.735882,-0.205712,0.962700,0.175761,-0.111671,0.275750,0.584279,-55.768906,126.485046,53.000732,,,,,,
1484000410.639200,-2.414376,-1.292258,1.922895,-0.724089,-0.262146,0.841931,-0.182785,0.961458,0.205396,-0.207275,0.035230,0.382083,-50.824051,124.763000,59.916748,,,,,,
1484000410.659189,-2.466747,-1.294345,1.834663,-0.921338,2.132999,1.019673,-0.170529,0.962030,0.213115,-0.008304,0.022528,-0.236827,-49.402283,124.012451,60.972595,,,,,,
1484000410.679208,-2.546567,-1.281646,1.714790,-1.822714,1.440469,0.943093,-0.159828,0.958486,0.236132,0.137245,-0.072897,-0.517321,-49.925858,124.312988,60.820312,,,,,,
1484000410.699197,-2.643954,-1.252250,1.589758,-2.431763,0.947033,0.717516,-0.149500,0.949692,0.275201,0.106364,-0.144195,-0.614373,-49.775970,124.312500,60.595520,,,,,,
1484000410.719217,-2.720285,-1.208970,1.492468,-2.772406,0.695963,0.388165,-0.144763,0.935252,0.323028,0.041750,-0.297587,-0.603592,-49.775970,124.312500,60.595520,,,,,,
1484000410.739206,-2.769985,-1.160181,1.422897,-2.693112,0.860302,0.223021,-0.144945,0.916875,0.371928,-0.015135,-0.412511,-0.439066,-49.632370,122.963196,61.277527,,,,,,
1484000410.759225,-2.788571,-1.116894,1.374599,-2.177032,1.496523,0.157390,-0.151596,0.898743,0.411436,-0.067657,-0.491944,-0.441603,-49.576065,119.065552,62.872070,,,,,,
1484000410.779214,-2.784401,-1.084098,1.342503,-1.559335,1.663365,0.074816,-0.163533,0.883882,0.438190,-0.103832,-0.614961,-0.531482,-50.032883,117.716003,62.728149,,,,,,
1484000410.799234,-2.768374,-1.063795,1.326836,-0.767241,1.339198,-0.053004,-0.177041,0.874205,0.452131,-0.099906,-0.677320,-0.547514,-49.962540,116.815491,62.432800,,,,,,
1484000410.819223,-2.747172,-1.060343,1.326381,0.221999,0.986902,-0.049762,-0.187745,0.872523,0.451060,-0.091918,-0.813426,-0.470301,-49.962540,116.815491,62.432800,,,,,,
1484000410.839242,-2.712301,-1.077752,1.343009,1.420066,1.076925,0.021801,-0.197004,0.880896,0.430362,-0.065188,-0.752966,-0.307071,-51.014999,116.366394,61.983459,,,,,,
1484000410.859231,-2.654548,-1.117827,1.377826,2.577267,1.561292,0.308796,-0.204822,0.899152,0.386749,-0.036420,-0.577557,-0.086379,-52.357498,117.942261,61.223572,,,,,,
1484000410.879251,-2.571859,-1.174042,1.427393,2.926462,1.960008,0.627680,-0.208442,0.922320,0.325389,0.062034,-0.149081,0.306035,-53.097275,120.116455,59.936584,,,,,,
1484000410.899240,-2.557640,-1.194115,1.423436,-1.221131,0.107353,0.645735,-0.202798,0.929890,0.306882,0.177621,0.941860,1.300097,-54.210327,122.665710,58.347168,,,,,,
1484000410.919259,-2.632159,-1.149542,1.319853,-2.864400,2.160084,0.460191,-0.199416,0.912577,0.356983,0.617888,2.224920,2.127254,-54.210327,122.665710,58.347168,,,,,,
1484000410.939248,-2.623726,-1.129047,1.266876,-0.758395,2.823913,0.488337,-0.211635,0.904005,0.371464,0.255672,0.965257,0.478634,-54.885437,122.666443,58.121155,,,,,,
1484000410.959268,-2.621811,-1.124311,1.213263,-0.939541,2.230370,1.161251,-0.214470,0.901970,0.374770,-0.118995,-0.544869,0.049104,-55.262192,122.292297,58.347473,,,,,,
1484000410.979257,-2.648074,-1.126367,1.170817,0.278306,-0.777421,0.416457,-0.203676,0.902856,0.378639,-0.195326,-0.947778,-0.395850,-55.410446,122.741089,57.369995,,,,,,
1484000410.999276,-2.658971,-1.147418,1.200471,1.654472,-1.863549,-0.187007,-0.190673,0.911706,0.363917,-0.498200,-0.412683,-0.986109,-55.258347,123.116455,57.818359,,,,,,
1484000411.019265,-2.629904,-1.181899,1.242372,1.995605,0.164503,0.268079,-0.185660,0.925328,0.330604,-0.790216,0.045467,-1.163489,-55.258347,123.116455,57.818359,,,,,,
1484000411.039285,-2.587708,-1.212900,1.288716,1.507880,-0.506037,-0.144653,-0.184259,0.936636,0.297930,-0.286185,0.245829,-0.404208,-54.278625,124.015686,58.265381,,,,,,
1484000411.059274,-2.588021,-1.210831,1.331156,-0.216122,-2.598870,-0.998542,-0.185184,0.935909,0.299636,0.036472,0.207890,0.183031,-54.797318,125.291260,58.108154,,,,,,
1484000411.079294,-2.553791,-1.211061,1.402317,1.580515,-0.762562,-0.974047,-0.195210,0.935990,0.292943,-0.047740,-0.167634,-0.044194,-54.050659,124.615295,58.187683,,,,,,
1484000411.099283,-2.405405,-1.249994,1.555683,3.860138,0.453597,-0.787414,-0.211733,0.948983,0.233669,-0.113447,-0.033211,-0.487835,-54.273529,125.065247,57.960083,,,,,,
1484000411.119302,-2.157068,-1.297939,1.814933,4.617752,-0.416899,-0.534772,-0.224483,0.963005,0.149095,-0.103520,0.044396,-0.615907,-54.273529,125.065247,57.960083,,,,,,
1484000411.139291,-1.871567,-1.331747,2.139911,4.187432,-2.147251,-0.076797,-0.226150,0.971564,0.070147,0.077590,0.074167,-0.598361,-55.390335,126.864563,56.374451,,,,,,
1484000411.159311,-1.649286,-1.340428,2.432411,2.937551,-3.364897,-0.393786,-0.227633,0.973582,0.017904,0.302554,0.353780,-0.442113,-55.457001,128.662598,55.015320,,,,,,
1484000411.179300,-1.523225,-1.328699,2.611501,1.598850,-1.614021,-0.742973,-0.239468,0.970837,-0.011400,0.341611,0.297473,-0.135572,-54.548355,130.460205,54.332703,,,,,,
1484000411.199319,-1.458019,-1.313920,2.678320,0.461835,1.080811,-0.578285,-0.252447,0.967188,-0.028592,0.288213,0.082052,0.241223,-55.147751,130.610657,54.031006,,,,,,
1484000411.219308,-1.403624,-1.301877,2.679067,0.016846,3.454919,-0.616409,-0.261986,0.964059,-0.044209,0.113060,-0.128533,0.461583,-55.147751,130.610657,54.031006,,,,,,
1484000411.239328,-1.325645,-1.290391,2.686889,0.394454,3.248946,-0.471804,-0.268471,0.960943,-0.067167,-0.000236,-0.180471,0.044218,-55.750458,130.160217,53.132324,,,,,,
1484000411.259305,-1.242235,-1.280708,2.728581,0.871579,1.485296,-0.189976,-0.270736,0.958219,-0.092299,0.026428,-0.221875,-0.159471,-56.502350,130.007996,50.882019,,,,,,
1484000411.279324,-1.171096,-1.271855,2.795920,1.175627,-0.344525,-0.010158,-0.271295,0.955649,-0.114606,0.078393,-0.191855,-0.170428,-56.956268,129.553711,47.583618,,,,,,
1484000411.299313,-1.116792,-1.261073,2.873080,1.322442,-1.154266,-0.040585,-0.273919,0.952418,-0.133673,0.002603,-0.129496,0.089759,-56.506470,129.552490,47.209290,,,,,,
1484000411.319333,-1.065450,-1.245865,2.945267,1.366517,-0.533714,-0.244950,-0.279340,0.947673,-0.154549,-0.090685,-0.083201,0.512978,-56.506470,129.552490,47.209290,,,,,,
1484000411.339322,-1.014583,-1.226303,2.999703,1.148046,0.115350,-0.470710,-0.286812,0.941247,-0.178307,-0.036613,-0.030312,0.425530,-57.179916,129.853577,47.281799,,,,,,
1484000411.359341,-0.987217,-1.207490,3.027289,0.830693,0.084006,-0.566129,-0.296552,0.934727,-0.195812,0.128873,0.021236,0.169597,-56.953018,130.302246,46.604919,,,,,,
1484000411.379330,-0.958202,-1.187462,3.053586,1.097891,0.292264,-0.539331,-0.306004,0.927423,-0.215056,0.162068,0.046500,0.328764,-57.104446,130.076538,46.005737,,,,,,
1484000411.399350,-0.927702,-1.166015,3.086496,1.048749,-0.308028,-0.472840,-0.315150,0.919189,-0.236162,0.200984,0.066621,0.404146,-57.858749,129.325989,44.883362,,,,,,
1484000411.419339,-0.931570,-1.152313,3.099143,0.367936,-0.899023,-0.362417,-0.326139,0.913706,-0.242433,0.278074,0.184194,0.356447,-57.858749,129.325989,44.883362,,,,,,
1484000411.439358,-0.946269,-1.144960,3.094507,0.041590,-0.186385,-0.340814,-0.335109,0.910693,-0.241535,0.380199,0.297162,0.315418,-57.860443,129.025391,44.509888,,,,,,
1484000411.459347,-0.946199,-1.142174,3.085598,-0.141357,0.671687,-0.118079,-0.337149,0.909539,-0.243041,0.326239,0.338340,0.439041,-57.637711,128.575073,44.512451,,,,,,
1484000411.479337,-0.955979,-1.148724,3.068654,-0.805650,-0.198509,0.144354,-0.334636,0.912242,-0.236291,0.119090,0.461736,0.627419,-57.788071,128.500366,44.512573,,,,,,
1484000411.499357,-1.025885,-1.170388,3.008486,-2.016751,-0.795264,0.319464,-0.333342,0.920902,-0.202047,0.087203,0.525342,0.395452,-57.937454,128.502380,45.712402,,,,,,
1484000411.519345,-1.135679,-1.199122,2.901195,-2.752302,-0.419521,0.318769,-0.329336,0.931720,-0.153085,0.000402,0.453533,0.419900,-57.937454,128.502380,45.712402,,,,,,
1484000411.539365,-1.300794,-1.228165,2.735062,-3.460415,-0.459726,0.364206,-0.323795,0.941874,-0.089614,-0.155087,0.195577,0.219908,-57.636826,128.503845,46.987854,,,,,,
1484000411.559354,-1.493230,-1.248598,2.535785,-3.185599,-0.050928,0.562218,-0.315701,0.948542,-0.024537,-0.247837,0.130667,-0.027892,-57.488800,127.906616,49.016052,,,,,,
1484000411.579373,-1.641427,-1.263375,2.380066,-1.888529,-0.128949,0.753620,-0.301848,0.953117,0.021355,-0.262331,0.462365,-0.326943,-56.589417,127.607849,50.743958,,,,,,
1484000411.599362,-1.738074,-1.275422,2.301925,-0.706014,-1.968969,0.760101,-0.287034,0.956693,0.048467,-0.339446,0.556002,-0.648672,-56.290863,127.085876,53.071899,,,,,,
1484000411.619382,-1.884746,-1.290569,2.235635,-0.925157,-5.528568,1.064845,-0.263055,0.960993,0.085411,-0.195182,0.346441,-0.590889,-56.290863,127.085876,53.071899,,,,,,
1484000411.639371,-2.127073,-1.298382,2.119061,-1.477383,-6.415504,0.990778,-0.228491,0.963124,0.142070,-0.095377,0.258250,-0.065440,-55.089691,127.087524,55.398743,,,,,,
1484000411.659390,-2.323943,-1.295853,1.991364,-1.273361,-1.648286,1.005921,-0.198064,0.962441,0.185684,-0.189219,0.167579,0.550187,-52.316513,126.339172,59.231689,,,,,,
1484000411.679379,-2.410019,-1.295124,1.876810,-1.162336,2.368552,1.136366,-0.181837,0.962243,0.202546,-0.139025,0.056999,0.096725,-49.996765,125.064148,61.491455,,,,,,
1484000411.699399,-2.491778,-1.284404,1.742561,-1.849534,2.004880,1.043234,-0.170919,0.959269,0.224920,0.062338,-0.061274,-0.430136,-50.072510,124.914246,61.492126,,,,,,
1484000411.719388,-2.598000,-1.260665,1.605509,-2.278639,0.924783,0.933686,-0.157845,0.952294,0.261193,0.079369,-0.161583,-0.615075,-50.072510,124.914246,61.492126,,,,,,
1484000411.739407,-2.690141,-1.221891,1.490958,-2.798580,0.840958,0.584536,-0.149148,0.939748,0.307619,0.008691,-0.269460,-0.637743,-50.300201,124.389404,61.344360,,,,,,
1484000411.759396,-2.755541,-1.171059,1.402372,-3.029746,0.874146,0.403179,-0.146538,0.921163,0.360534,0.000710,-0.358328,-0.581390,-50.008423,122.665161,62.178467,,,,,,
1484000411.779416,-2.793976,-1.121754,1.336274,-2.594313,1.283489,0.394725,-0.147881,0.900863,0.408138,-0.037437,-0.364746,-0.429195,-50.543564,120.567017,62.863098,,,,,,
1484000411.799405,-2.806529,-1.085252,1.289030,-1.743834,1.535104,0.378887,-0.153461,0.884421,0.440737,-0.092831,-0.459800,-0.423098,-50.177444,118.766846,63.097717,,,,,,
1484000411.819424,-2.802996,-1.065666,1.262310,-0.770171,1.190258,0.223064,-0.160741,0.875112,0.456445,-0.131694,-0.650731,-0.475000,-50.177444,118.766846,63.097717,,,,,,
1484000411.839413,-2.792761,-1.063955,1.253110,0.211058,0.794433,0.158599,-0.165916,0.874282,0.456182,-0.141884,-0.806152,-0.434393,-50.859192,117.417786,63.103455,,,,,,
1484000411.859433,-2.768609,-1.079941,1.262711,1.210686,0.838358,-0.000178,-0.171769,0.881930,0.438971,-0.114837,-0.767855,-0.317205,-50.783493,117.641541,62.277405,,,,,,
1484000411.879422,-2.717706,-1.113874,1.297083,2.284950,1.141878,-0.070460,-0.181464,0.897415,0.402142,-0.082910,-0.592743,-0.116238,-51.827896,118.767944,62.195190,,,,,,
1484000411.899441,-2.634605,-1.165968,1.356655,3.184706,1.702611,0.156121,-0.191238,0.919170,0.344317,0.024932,-0.260982,0.216977,-52.269714,120.492188,61.285950,,,,,,
1484000411.919430,-2.537621,-1.214764,1.421190,1.879790,1.563709,0.264089,-0.197952,0.937287,0.286894,0.120864,0.421478,0.899294,-52.269714,120.492188,61.285950,,,,,,
1484000411.939451,-2.576306,-1.191219,1.357906,-3.407429,1.685253,0.230275,-0.198476,0.928821,0.312887,0.427129,2.036465,2.560099,-55.101669,124.466003,57.661804,,,,,,
1484000411.959440,-2.594248,-1.149655,1.278141,-1.465956,2.594800,0.458407,-0.212750,0.912623,0.349080,0.629421,1.241903,0.709422,-55.031693,123.416565,58.117188,,,,,,
1484000411.979459,-2.605793,-1.155082,1.231539,-0.050635,1.258155,1.279081,-0.206174,0.914828,0.347249,0.238141,-0.422091,0.143489,-56.008743,123.042480,57.742615,,,,,,
1484000411.999448,-2.644924,-1.169068,1.178888,0.462952,-0.401547,0.887681,-0.186316,0.920387,0.343766,0.001135,-0.761573,-0.439011,-55.402542,124.316162,57.437134,,,,,,
1484000412.019467,-2.645954,-1.194161,1.208309,1.766515,-1.717143,-0.199311,-0.174920,0.929907,0.323535,-0.494177,-0.158743,-1.098941,-55.402542,124.316162,57.437134,,,,,,
1484000412.039456,-2.620293,-1.223539,1.254448,1.486833,-0.274153,0.263898,-0.169482,0.940310,0.295117,-0.996412,0.189314,-1.149609,-54.722580,125.290344,57.583252,,,,,,
1484000412.059476,-2.595620,-1.247349,1.283368,1.279406,-0.224707,-0.047730,-0.165037,0.948145,0.271631,-0.571261,0.181982,-0.730142,-53.813599,127.088928,57.575623,,,,,,
1484000412.079465,-2.574642,-1.245316,1.323847,-0.799227,-1.340712,-0.984931,-0.171733,0.947497,0.269734,-0.081792,-0.100009,0.602244,-53.960159,127.838257,56.971680,,,,,,
1484000412.099484,-2.521849,-1.227302,1.388075,0.911528,0.307357,-1.384819,-0.195610,0.941584,0.274148,-0.188102,-0.259226,0.248863,-54.414764,126.864807,57.500916,,,,,,
1484000412.119473,-2.357421,-1.257910,1.550675,3.870534,0.508907,-0.828664,-0.217385,0.951449,0.217919,-0.155998,0.108381,-0.691384,-54.414764,126.864807,57.500916,,,,,,
1484000412.139493,-2.071387,-1.307491,1.849904,5.271318,-0.574824,-0.400696,-0.228338,0.965535,0.124917,-0.029521,0.199764,-0.786400,-54.417267,126.414001,56.978149,,,,,,
1484000412.159482,-1.712067,-1.336990,2.254550,4.880366,-2.217607,-0.122957,-0.229374,0.972792,0.032621,0.142536,0.254183,-0.721815,-56.127411,129.711670,53.734070,,,,,,
1484000412.179501,-1.444483,-1.332990,2.577617,3.027813,-2.182678,-0.294046,-0.233695,0.971857,-0.029677,0.376517,0.190161,-0.551790,-55.295822,131.207703,51.927795,,,,,,
1484000412.199490,-1.320142,-1.313553,2.734886,1.599079,-0.765824,-0.751048,-0.246466,0.967095,-0.063105,0.467840,0.106269,-0.221990,-55.218140,131.806702,51.324890,,,,,,
1484000412.219510,-1.276836,-1.296936,2.769857,-0.030182,1.013945,-0.673747,-0.258848,0.962734,-0.078361,0.264891,-0.070782,0.229240,-55.218140,131.806702,51.324890,,,,,,
1484000412.239499,-1.308105,-1.287720,2.699677,-0.915484,2.456312,-0.647433,-0.269729,0.960201,-0.072532,-0.066606,-0.098980,0.726691,-55.518250,131.806763,51.099548,,,,,,
1484000412.259495,-1.264128,-1.280572,2.682038,0.387051,3.016182,-0.277830,-0.272816,0.958180,-0.086389,-0.130428,-0.108387,0.291162,-56.948349,130.981079,49.151489,,,,,,
1484000412.279484,-1.176508,-1.272137,2.736162,1.050363,0.892184,-0.023750,-0.271662,0.955732,-0.113032,0.010889,-0.091047,-0.165380,-57.098541,131.128418,47.275513,,,,,,
1484000412.299473,-1.119127,-1.264429,2.806710,1.153721,-1.187755,0.106551,-0.271353,0.953435,-0.131638,0.100210,-0.144460,-0.131103,-57.475540,130.827576,46.301453,,,,,,
1484000412.319493,-1.076964,-1.254009,2.882769,1.383466,-1.502021,0.024987,-0.274296,0.950241,-0.147659,0.081455,-0.161713,0.257141,-57.475540,130.827576,46.301453,,,,,,
1484000412.339482,-1.025171,-1.237898,2.959414,1.430644,-0.728587,-0.164333,-0.279335,0.945099,-0.169585,0.095360,-0.062226,0.322982,-57.623138,131.278198,46.598999,,,,,,
1484000412.359501,-0.981366,-1.221220,3.011042,1.032870,0.032387,-0.273700,-0.284706,0.939518,-0.190392,0.085365,-0.029453,0.276177,-57.023727,131.127747,46.900635,,,,,,
1484000412.379490,-0.942008,-1.205221,3.044433,0.930981,0.580420,-0.358062,-0.289114,0.933918,-0.210261,0.031393,-0.043492,0.356013,-57.471619,131.725830,45.171936,,,,,,
1484000412.399510,-0.903941,-1.186680,3.073609,1.009438,0.394362,-0.456694,-0.294460,0.927130,-0.231784,0.042446,0.002893,0.437792,-57.624100,131.275391,44.723999,,,,,,
1484000412.419499,-0.891117,-1.168746,3.092730,0.703569,-0.659278,-0.464913,-0.304348,0.920261,-0.245953,0.224071,0.094220,0.340496,-57.624100,131.275391,44.723999,,,,,,
1484000412.439519,-0.905649,-1.155982,3.098968,0.406675,-1.078088,-0.390875,-0.317106,0.915191,-0.248734,0.432264,0.283677,0.389450,-57.926682,130.824829,44.050781,,,,,,
1484000412.459508,-0.917900,-1.148165,3.100165,0.154143,-0.308682,-0.223691,-0.325803,0.912013,-0.249169,0.448774,0.450521,0.409600,-58.076828,130.824646,43.750549,,,,,,
1484000412.479527,-0.916803,-1.148038,3.097235,-0.201225,0.319564,0.077329,-0.325621,0.911961,-0.249597,0.171889,0.427578,0.657632,-58.154297,130.300232,44.053040,,,,,,
1484000412.499516,-0.944312,-1.160814,3.069332,-1.343885,-0.426228,0.202350,-0.322898,0.917128,-0.233695,-0.008447,0.349092,0.696861,-58.005692,130.000366,44.279785,,,,,,
1484000412.519536,-1.034954,-1.188707,2.983509,-2.551836,-0.536647,0.275020,-0.320599,0.927888,-0.190369,0.024106,0.370269,0.441804,-58.005692,130.000366,44.279785,,,,,,
1484000412.539525,-1.180381,-1.221250,2.840264,-3.301469,-0.748166,0.355676,-0.316701,0.939528,-0.130335,-0.092143,0.244066,0.266856,-58.153168,130.377502,45.552673,,,,,,
1484000412.559544,-1.387298,-1.248565,2.641141,-3.533604,-0.823494,0.406141,-0.311367,0.948531,-0.057785,-0.183293,0.210709,0.077484,-57.629654,129.928955,47.055725,,,,,,
1484000412.579533,-1.572459,-1.268656,2.450213,-2.581759,0.215103,0.948639,-0.297563,0.954702,0.000495,-0.187666,0.504145,-0.227896,-57.705276,129.557800,49.532471,,,,,,
1484000412.599553,-1.685043,-1.286562,2.330793,-1.171208,-0.292779,0.983951,-0.278594,0.959877,0.031968,-0.296433,0.626854,-0.635102,-56.955170,129.261353,52.684998,,,,,,
1484000412.619542,-1.798448,-1.305892,2.254825,-0.931514,-3.421570,1.249091,-0.255062,0.965118,0.059090,-0.348148,0.489533,-0.698189,-56.955170,129.261353,52.684998,,,,,,
1484000412.639561,-2.052850,-1.318621,2.110898,-1.819268,-6.850759,1.171550,-0.221078,0.968372,0.115673,-0.219779,0.412152,-0.199169,-56.053192,129.561462,53.659912,,,,,,
1484000412.659550,-2.335359,-1.312862,1.943502,-1.735312,-4.520689,0.929658,-0.184090,0.966919,0.176575,-0.215629,0.235230,0.788986,-54.252472,129.413147,56.588379,,,,,,
1484000412.679570,-2.466258,-1.309596,1.826812,-0.823705,0.861952,1.092260,-0.161441,0.966081,0.201556,-0.242337,0.000350,0.308393,-51.183487,127.839050,60.275818,,,,,,
1484000412.699559,-2.536630,-1.308256,1.712746,-1.184934,2.239853,1.163593,-0.147606,0.965734,0.213474,-0.061165,-0.106954,-0.273212,-50.285767,127.239868,61.705139,,,,,,
1484000412.719578,-2.633076,-1.292445,1.570541,-1.941434,1.834083,1.162548,-0.133781,0.961510,0.240003,0.042716,-0.201225,-0.593198,-50.285767,127.239868,61.705139,,,,,,
1484000412.739567,-2.728424,-1.259631,1.441273,-2.529904,1.213582,0.787262,-0.122931,0.951978,0.280405,0.099432,-0.339474,-0.745279,-50.211639,127.089417,61.481018,,,,,,
1484000412.759587,-2.795622,-1.210541,1.350905,-2.976001,0.714391,0.303047,-0.119541,0.935807,0.331625,0.080005,-0.460847,-0.711218,-50.364899,126.414978,61.709167,,,,,,
1484000412.779576,-2.835269,-1.154306,1.294099,-2.986233,0.759134,0.049641,-0.121996,0.914514,0.385721,-0.021086,-0.457498,-0.461267,-50.522400,124.841370,62.466797,,,,,,
1484000412.799595,-2.847395,-1.103221,1.254071,-2.472064,1.463169,0.099362,-0.130697,0.892664,0.431358,-0.094828,-0.438623,-0.391975,-50.466980,120.793213,63.762146,,,,,,
1484000412.819584,-2.842413,-1.068022,1.225490,-1.476575,1.418778,0.113467,-0.142021,0.876249,0.460453,-0.129143,-0.537779,-0.487950,-50.466980,120.793213,63.762146,,,,,,
1484000412.839604,-2.828992,-1.054270,1.216419,-0.276265,0.868929,-0.068850,-0.151880,0.869540,0.469928,-0.157507,-0.745227,-0.450596,-50.924301,119.368347,63.393555,,,,,,
1484000412.859593,-2.805542,-1.061311,1.227808,0.830976,0.618627,-0.180749,-0.160834,0.872996,0.460447,-0.192209,-0.817316,-0.341505,-51.301208,118.993774,63.319885,,,,,,
1484000412.879613,-2.765451,-1.088922,1.256537,1.981786,0.906774,-0.129017,-0.170238,0.886128,0.431041,-0.179005,-0.727360,-0.119320,-51.223877,119.517822,62.717407,,,,,,
1484000412.899602,-2.687180,-1.139192,1.310429,3.257449,1.908318,-0.056534,-0.183619,0.908296,0.375876,-0.066152,-0.413301,0.233163,-52.117661,120.793701,62.409668,,,,,,
1484000412.919621,-2.555958,-1.199371,1.401219,3.300224,2.470257,-0.040407,-0.200609,0.931811,0.302463,0.052233,0.335828,0.697110,-52.117661,120.793701,62.409668,,,,,,
1484000412.939610,-2.545341,-1.203922,1.402240,-2.634779,-0.867564,0.287694,-0.201426,0.933453,0.296804,0.164927,2.188434,2.239252,-54.271500,125.440674,58.258240,,,,,,
1484000412.959630,-2.588706,-1.137571,1.295181,-3.304037,4.579231,-0.042514,-0.220456,0.907617,0.357255,0.443295,1.359931,1.262237,-55.471985,125.441101,57.281372,,,,,,
1484000412.979619,-2.576169,-1.121291,1.248895,-0.239291,1.168894,0.741082,-0.232804,0.900662,0.366892,0.302140,-0.499829,0.099127,-56.006271,123.493164,58.190369,,,,,,
1484000412.999638,-2.618061,-1.140801,1.213168,0.815780,-1.324386,1.087581,-0.208409,0.908968,0.361031,0.170247,-1.010850,0.005393,-56.531723,123.492615,57.289551,,,,,,
1484000413.019627,-2.620249,-1.171939,1.251666,2.145198,-2.086310,-0.367195,-0.193424,0.921505,0.336772,-0.213146,-0.371975,-0.623805,-56.531723,123.492615,57.289551,,,,,,
1484000413.039647,-2.590601,-1.201747,1.311454,1.532457,-0.587796,0.046327,-0.188853,0.932671,0.307343,-0.719899,0.078606,-1.485825,-54.795135,125.741028,57.955872,,,,,,
1484000413.059636,-2.567675,-1.221087,1.341817,0.985627,-0.261157,-0.163294,-0.186020,0.939472,0.287729,-0.711914,0.290554,-1.042292,-54.265701,126.640137,57.877258,,,,,,
1484000413.079625,-2.544866,-1.219674,1.383500,-0.450443,-1.389829,-0.856371,-0.193280,0.938987,0.284510,-0.044483,-0.094322,-0.231120,-54.338028,127.165283,57.949463,,,,,,
1484000413.099644,-2.525059,-1.203281,1.427795,0.611140,-0.425890,-1.154109,-0.207750,0.933223,0.293147,0.050584,-0.135097,0.378500,-54.865646,126.641174,57.951294,,,,,,
1484000413.119633,-2.386587,-1.232961,1.566117,3.747267,0.706249,-0.751657,-0.227137,0.943474,0.241381,-0.065923,0.190452,-0.393298,-54.865646,126.641174,57.951294,,,,,,
1484000413.139653,-2.137568,-1.285628,1.822056,5.036741,-0.196963,-0.282674,-0.237332,0.959614,0.151043,-0.119312,0.334850,-0.707654,-55.240479,126.789978,56.824951,,,,,,
1484000413.159642,-1.827774,-1.323501,2.168399,4.679865,-1.808607,-0.061780,-0.236745,0.969578,0.062214,0.057820,0.223873,-0.672565,-55.830582,128.962952,54.863281,,,,,,
1484000413.179661,-1.565598,-1.328183,2.484440,3.217649,-2.288180,-0.378510,-0.240237,0.970713,-0.001249,0.272570,0.188634,-0.472201,-55.970367,131.210022,52.826782,,,,,,
1484000413.199650,-1.443143,-1.313580,2.650917,1.488953,-1.618238,-0.716596,-0.252319,0.967102,-0.032386,0.335266,0.094559,-0.249902,-55.517258,131.883606,52.299072,,,,,,
1484000413.219670,-1.403179,-1.296775,2.697076,0.330860,0.812220,-0.703115,-0.266813,0.962690,-0.045146,0.247876,-0.048399,0.215754,-55.517258,131.883606,52.299072,,,,,,
1484000413.239659,-1.350057,-1.283660,2.696432,0.153208,3.631237,-0.626922,-0.276335,0.959059,-0.062008,0.016814,-0.175520,0.555447,-55.594025,131.509033,52.525879,,,,,,
1484000413.259665,-1.263114,-1.271206,2.712256,0.502075,3.118197,-0.464457,-0.281269,0.955457,-0.089380,-0.073300,-0.140608,0.134287,-57.097443,131.057800,50.200867,,,,,,
1484000413.279654,-1.198018,-1.261751,2.747532,0.762545,0.630745,-0.155508,-0.283260,0.952624,-0.110772,-0.065800,-0.200107,0.006555,-57.623611,131.055115,47.875122,,,,,,
1484000413.299674,-1.154635,-1.252713,2.804113,1.112481,-1.022371,-0.057899,-0.286053,0.949837,-0.126428,0.002224,-0.164299,0.052637,-57.173401,131.202820,46.825012,,,,,,
1484000413.319663,-1.114891,-1.239998,2.873083,1.359211,-1.315232,-0.164230,-0.291624,0.945783,-0.143001,0.051878,-0.144087,0.274409,-57.173401,131.202820,46.825012,,,,,,
1484000413.339683,-1.070172,-1.221559,2.941905,1.428890,-0.844147,-0.361204,-0.300190,0.939634,-0.164238,0.113728,-0.074613,0.417900,-57.173843,131.127686,46.675354,,,,,,
1484000413.359672,-1.038877,-1.202634,2.987972,1.018431,-0.394339,-0.461144,-0.310176,0.932990,-0.182538,0.223201,0.071252,0.147473,-57.924515,130.979004,46.825012,,,,,,
1484000413.379691,-1.007903,-1.184257,3.021175,1.070532,0.209093,-0.455141,-0.318822,0.926219,-0.201173,0.207769,0.033772,0.322923,-58.150391,130.902893,45.850098,,,,,,
1484000413.399680,-0.966709,-1.163955,3.059806,1.189966,0.206937,-0.438771,-0.325678,0.918375,-0.224768,0.171518,-0.016032,0.464605,-58.302979,130.452087,45.177063,,,,,,
1484000413.419700,-0.949949,-1.147171,3.082894,0.616778,-0.492408,-0.383131,-0.334357,0.911605,-0.239128,0.243521,0.067033,0.401192,-58.302979,130.452087,45.177063,,,,,,
1484000413.439689,-0.959774,-1.138184,3.086944,0.209442,-0.690320,-0.300609,-0.343387,0.907874,-0.240522,0.396411,0.207483,0.432341,-58.530273,130.076233,44.353638,,,,,,
1484000413.459708,-0.972591,-1.133884,3.081800,-0.080664,-0.158990,-0.183702,-0.349664,0.906062,-0.238298,0.458886,0.314122,0.438448,-58.907822,129.552002,44.505676,,,,,,
1484000413.479697,-0.985959,-1.137699,3.064150,-0.721287,0.130326,0.028208,-0.349934,0.907670,-0.231693,0.221119,0.398818,0.582858,-58.532669,129.551941,44.806213,,,,,,
1484000413.499717,-1.050818,-1.156513,2.999154,-2.230910,-0.464740,0.150178,-0.349331,0.915405,-0.200004,0.075741,0.504593,0.590049,-58.382553,129.552002,45.031494,,,,,,
1484000413.519706,-1.175252,-1.188010,2.871770,-3.261381,-0.274431,0.418816,-0.344667,0.927628,-0.143916,0.056779,0.493866,0.377665,-58.382553,129.552002,45.031494,,,,,,
1484000413.539725,-1.354818,-1.221560,2.683783,-3.875917,-0.061344,0.654210,-0.334231,0.939634,-0.073330,-0.117673,0.297610,0.218029,-58.758667,129.179871,46.532776,,,,,,
1484000413.559714,-1.544584,-1.245216,2.473490,-3.301203,0.621855,0.839839,-0.319749,0.947465,-0.008383,-0.300002,0.287718,-0.085580,-58.309769,128.732483,48.785706,,,,,,
1484000413.579734,-1.686946,-1.261028,2.321153,-1.818058,-0.315298,0.835194,-0.302784,0.952404,0.035327,-0.349728,0.639515,-0.558200,-57.635956,128.210754,51.639282,,,,,,
1484000413.599723,-1.798234,-1.273306,2.234469,-0.886378,-2.284917,0.857609,-0.285573,0.956075,0.066094,-0.407954,0.581889,-0.694267,-56.960052,128.286316,52.689880,,,,,,
1484000413.619742,-1.962494,-1.285965,2.152437,-1.145661,-5.555995,1.038950,-0.259714,0.959709,0.107273,-0.278555,0.401116,-0.581150,-56.960052,128.286316,52.689880,,,,,,
1484000413.639731,-2.216214,-1.287073,2.019459,-1.805121,-6.053154,0.914605,-0.223624,0.960020,0.168388,-0.037500,0.383639,0.082939,-56.209366,128.213379,54.791443,,,,,,
1484000413.659751,-2.396271,-1.281671,1.898902,-1.035895,-1.165384,1.035358,-0.193367,0.958494,0.209522,-0.122628,0.207461,0.572293,-53.811340,127.465027,58.323730,,,,,,
1484000413.679740,-2.466148,-1.288119,1.796229,-0.742691,2.476976,1.441144,-0.174398,0.960312,0.217683,-0.067622,0.122589,0.130294,-50.818420,125.740234,61.411865,,,,,,
1484000413.699759,-2.550394,-1.285846,1.660901,-1.499065,1.916234,1.420825,-0.156678,0.959676,0.233398,0.136827,0.031093,-0.463836,-50.740158,126.414795,61.183594,,,,,,
1484000413.719748,-2.648368,-1.265414,1.525975,-2.125148,1.516301,0.956109,-0.142352,0.953732,0.264823,0.052798,-0.122983,-0.593711,-50.740158,126.414795,61.183594,,,,,,
1484000413.739768,-2.717735,-1.225739,1.420202,-2.770192,1.532372,0.464483,-0.139116,0.941056,0.308319,-0.000670,-0.334077,-0.698242,-51.040421,126.340576,61.408508,,,,,,
1484000413.759757,-2.764722,-1.172458,1.340228,-3.113224,1.273750,0.238684,-0.142747,0.921707,0.360665,-0.010130,-0.462372,-0.693002,-50.744888,125.440308,61.488464,,,,,,
1484000413.779777,-2.795385,-1.118403,1.278451,-2.831331,1.368546,0.265964,-0.148329,0.899403,0.411184,-0.050401,-0.474645,-0.530065,-50.902863,123.791260,62.021484,,,,,,
1484000413.799766,-2.806065,-1.076509,1.231937,-1.993716,1.605131,0.307885,-0.156206,0.880307,0.447950,-0.103666,-0.510037,-0.477125,-51.747040,119.893494,62.639709,,,,,,
1484000413.819785,-2.800818,-1.053480,1.204579,-0.886177,1.312365,0.199750,-0.165287,0.869150,0.466111,-0.145260,-0.633584,-0.512284,-51.747040,119.893494,62.639709,,,,,,
1484000413.839774,-2.786794,-1.050371,1.196261,0.159895,0.954279,0.117905,-0.172745,0.867608,0.466279,-0.181488,-0.807687,-0.451203,-52.200745,119.218140,61.967407,,,,,,
1484000413.859794,-2.759790,-1.065908,1.206092,1.231034,0.970115,0.013035,-0.180228,0.875228,0.448880,-0.171625,-0.811767,-0.340512,-52.501953,118.993347,61.818054,,,,,,
1484000413.879783,-2.705497,-1.100834,1.239499,2.323191,1.432984,-0.010249,-0.191287,0.891585,0.410470,-0.102628,-0.673034,-0.124718,-52.199966,119.442139,61.291321,,,,,,
1484000413.899772,-2.619490,-1.154502,1.295025,3.249801,2.067090,0.330627,-0.201663,0.914594,0.350500,0.051242,-0.335874,0.135217,-54.582993,123.042542,59.244751,,,,,,
1484000413.919791,-2.532494,-1.202841,1.350657,1.478337,1.004869,0.338592,-0.205800,0.933065,0.295020,0.051228,0.508250,0.609765,-54.582993,123.042542,59.244751,,,,,,
1484000413.939780,-2.600660,-1.161839,1.267498,-4.138922,2.033592,0.016609,-0.204766,0.917536,0.340879,0.212090,2.198614,2.788256,-55.772293,125.440613,56.680969,,,,,,
1484000413.959800,-2.595098,-1.117114,1.195382,-1.332476,3.048238,0.377013,-0.227771,0.898839,0.374444,0.422199,1.196498,0.792640,-56.151413,124.616150,56.684509,,,,,,
1484000413.979789,-2.598758,-1.126968,1.165594,0.391397,0.669728,1.154805,-0.221813,0.903114,0.367673,0.144238,-0.410118,0.156360,-56.531616,123.566833,56.764221,,,,,,
1484000413.999808,-2.624708,-1.143498,1.131039,0.484221,-0.411728,0.584936,-0.204793,0.910089,0.360276,-0.004436,-0.678063,-0.222626,-55.624802,124.989563,56.158386,,,,,,
1484000414.019797,-2.623239,-1.160252,1.161390,1.291234,-1.462261,-0.255280,-0.197738,0.916904,0.346680,-0.284424,-0.087772,-0.936997,-55.624802,124.989563,56.158386,,,,,,
1484000414.039817,-2.606342,-1.184769,1.193273,1.341409,-0.088658,0.291921,-0.192042,0.926412,0.323852,-0.691579,0.309229,-1.201507,-55.395828,125.739929,56.605042,,,,,,
1484000414.059806,-2.579350,-1.208553,1.218653,1.275379,0.142427,0.049748,-0.188911,0.935104,0.299822,-0.296532,-0.016952,-0.717485,-54.717087,126.488892,56.602295,,,,,,
1484000414.079825,-2.561431,-1.211028,1.255082,-0.481590,-1.644891,-0.871220,-0.192983,0.935978,0.294452,-0.052988,-0.230534,0.170941,-55.162628,127.463257,55.771729,,,,,,
1484000414.099814,-2.534288,-1.194769,1.305517,0.696053,-0.187293,-1.237042,-0.209561,0.930131,0.301564,-0.207828,-0.169938,0.374583,-55.915619,126.864502,55.773621,,,,,,
1484000414.119834,-2.400730,-1.223289,1.440470,3.604602,0.410994,-0.829221,-0.229849,0.940224,0.251291,-0.157617,0.175422,-0.628290,-55.915619,126.864502,55.773621,,,,,,
1484000414.139823,-2.178442,-1.275534,1.678391,4.937768,-0.662824,-0.286386,-0.238902,0.956726,0.166137,-0.095021,0.236984,-0.793365,-55.843323,126.413025,54.875977,,,,,,
1484000414.159842,-1.888320,-1.321047,2.009421,4.869409,-1.852833,0.156920,-0.234806,0.968974,0.077167,0.126423,0.223332,-0.698032,-56.211670,127.911011,53.217896,,,,,,
1484000414.179831,-1.602476,-1.335670,2.350286,3.569962,-2.428673,-0.136734,-0.232849,0.972485,0.007379,0.296372,0.258259,-0.579690,-56.804016,129.560181,52.008789,,,,,,
1484000414.199851,-1.447109,-1.325340,2.554473,1.854802,-1.813707,-0.586044,-0.241142,0.970027,-0.029979,0.371452,0.087530,-0.307560,-56.196686,131.132629,50.951904,,,,,,
1484000414.219840,-1.401060,-1.308984,2.617111,0.269046,0.072780,-0.692423,-0.255112,0.965922,-0.043723,0.210572,-0.079280,0.211203,-56.196686,131.132629,50.951904,,,,,,
1484000414.239860,-1.401425,-1.296171,2.577129,-0.582650,3.079243,-0.748639,-0.267306,0.962527,-0.045712,-0.062543,-0.135043,0.655743,-55.900253,130.456665,50.580688,,,,,,
1484000414.259844,-1.343964,-1.284565,2.554033,0.103132,4.023474,-0.533094,-0.275107,0.959315,-0.063496,-0.074915,-0.149821,0.176914,-56.952698,130.081482,49.455994,,,,,,
1484000414.279863,-1.265497,-1.275212,2.579629,0.638534,1.722089,-0.232228,-0.277828,0.956632,-0.087558,-0.015186,-0.149274,-0.156735,-57.930130,129.780151,47.580994,,,,,,
1484000414.299852,-1.214882,-1.268451,2.629341,0.915423,-0.636672,-0.020934,-0.279099,0.954641,-0.103754,0.033432,-0.144994,-0.129691,-58.305786,129.852661,45.555054,,,,,,
1484000414.319872,-1.176464,-1.259985,2.696201,1.197680,-1.442043,-0.053164,-0.282360,0.952086,-0.117498,0.038982,-0.142302,0.174474,-58.305786,129.852661,45.555054,,,,,,
1484000414.339861,-1.124267,-1.245640,2.774361,1.515746,-0.812751,-0.231263,-0.288135,0.947601,-0.137953,0.024493,-0.098205,0.548628,-58.081726,129.701782,45.181152,,,,,,
1484000414.359880,-1.076303,-1.228221,2.836542,1.103521,-0.403276,-0.355204,-0.295675,0.941893,-0.159420,0.154409,0.028002,0.108700,-58.530594,129.927490,45.179321,,,,,,
1484000414.379869,-1.046845,-1.212889,2.868946,0.810470,0.166420,-0.416935,-0.303320,0.936632,-0.175264,0.214331,0.012892,0.122606,-58.532150,129.701233,44.355530,,,,,,
1484000414.399889,-1.006268,-1.195682,2.905120,1.168382,0.360591,-0.371559,-0.309532,0.930466,-0.196019,0.141472,0.021866,0.412801,-58.458237,129.476196,44.431702,,,,,,
1484000414.419878,-0.963435,-1.176337,2.951234,1.177488,-0.323046,-0.317660,-0.315578,0.923204,-0.219326,0.163601,0.064283,0.429684,-58.458237,129.476196,44.431702,,,,,,
1484000414.439897,-0.959589,-1.162864,2.972146,0.460645,-0.901511,-0.316299,-0.324889,0.917943,-0.227656,0.267974,0.169871,0.372858,-58.611130,129.024536,43.158752,,,,,,
1484000414.459886,-0.971918,-1.155038,2.971621,0.091487,-0.302808,-0.324237,-0.333595,0.914810,-0.227676,0.386955,0.253387,0.345672,-58.987137,128.800476,43.384277,,,,,,
1484000414.479906,-0.975512,-1.151876,2.961735,-0.160672,0.568530,-0.174405,-0.336805,0.913529,-0.228096,0.325239,0.303451,0.407540,-58.764175,128.424683,43.086487,,,,,,
1484000414.499895,-0.980202,-1.155809,2.946486,-0.551198,0.190129,0.078016,-0.334884,0.915121,-0.224512,0.115218,0.417368,0.592844,-58.690445,128.199097,42.787781,,,,,,
1484000414.519914,-1.031214,-1.171414,2.901417,-1.616645,-0.780098,0.257435,-0.333603,0.921301,-0.199782,0.074173,0.511957,0.511596,-58.690445,128.199097,42.787781,,,,,,
1484000414.539903,-1.132194,-1.198717,2.807068,-2.526621,-0.534475,0.404092,-0.329141,0.931573,-0.154392,0.023554,0.482871,0.400577,-58.915817,128.124451,42.787781,,,,,,
1484000414.559923,-1.285003,-1.228286,2.652300,-3.360158,-0.334775,0.427852,-0.322230,0.941914,-0.094683,-0.090566,0.195460,0.270815,-58.914291,128.128967,45.787781,,,,,,
1484000414.579912,-1.475803,-1.250026,2.451690,-3.301919,0.123190,0.520066,-0.313876,0.948993,-0.029906,-0.175107,0.036466,-0.034577,-58.539124,127.981079,47.589111,,,,,,
1484000414.599931,-1.640558,-1.265803,2.277956,-2.219080,-0.173385,0.832148,-0.299556,0.953849,0.020932,-0.238774,0.426751,-0.396664,-58.388565,127.908630,49.464722,,,,,,
1484000414.619920,-1.756713,-1.277956,2.174961,-1.062445,-1.389410,0.832403,-0.283698,0.957428,0.053360,-0.339135,0.542816,-0.574555,-58.388565,127.908630,49.464722,,,,,,
1484000414.639940,-1.886734,-1.291927,2.097548,-0.969837,-3.910038,0.998389,-0.261645,0.961367,0.085528,-0.256925,0.438428,-0.597262,-57.487991,127.908997,50.591064,,,,,,
1484000414.659929,-2.116918,-1.297962,1.971428,-1.728702,-6.018611,0.962334,-0.230267,0.963011,0.139952,-0.125369,0.347383,-0.102507,-55.685944,127.912354,54.643677,,,,,,
1484000414.679918,-2.350164,-1.289608,1.825087,-1.692169,-3.113723,0.901476,-0.197400,0.960726,0.195033,-0.171161,0.214124,0.523183,-53.738449,127.089233,57.875793,,,,,,
1484000414.699938,-2.455823,-1.286883,1.718360,-0.850251,1.278864,1.107953,-0.177388,0.959967,0.216790,-0.160899,0.042582,0.148826,-52.166885,126.190186,59.982605,,,,,,
1484000414.719927,-2.521680,-1.283500,1.606135,-1.366717,2.164986,1.145907,-0.164622,0.959014,0.230635,0.054149,-0.037184,-0.355223,-52.166885,126.190186,59.982605,,,,,,
1484000414.739946,-2.606931,-1.264383,1.477252,-2.083057,1.722549,1.003607,-0.153701,0.953422,0.259544,0.092971,-0.168036,-0.593346,-51.864975,126.564819,60.056213,,,,,,
1484000414.759935,-2.690533,-1.229905,1.360947,-2.580168,1.138906,0.663290,-0.145740,0.942457,0.300890,0.030490,-0.217710,-0.680956,-52.990753,126.416382,59.980286,,,,,,
1484000414.779955,-2.752256,-1.181440,1.272527,-3.003286,1.068620,0.362233,-0.144084,0.925154,0.351185,0.012004,-0.295378,-0.608524,-52.324066,124.691284,60.589783,,,,,,
1484000414.799944,-2.789064,-1.128162,1.205627,-2.888773,1.336146,0.295014,-0.147887,0.903626,0.401981,-0.023484,-0.301209,-0.502353,-52.183670,122.741577,60.899841,,,,,,
1484000414.819963,-2.807643,-1.083086,1.151876,-2.281651,1.547271,0.429406,-0.153598,0.883408,0.442717,-0.122494,-0.371674,-0.477003,-52.183670,122.741577,60.899841,,,,,,
1484000414.839952,-2.811495,-1.053322,1.112154,-1.354209,1.492779,0.394387,-0.160346,0.869071,0.467979,-0.185525,-0.549186,-0.472053,-52.565262,121.392578,61.205994,,,,,,
1484000414.859972,-2.805659,-1.043231,1.091252,-0.226225,1.022889,0.303595,-0.165957,0.864035,0.475291,-0.207304,-0.761633,-0.442012,-52.720474,120.342834,61.286011,,,,,,
1484000414.879961,-2.791021,-1.053273,1.088349,0.850911,0.805234,0.191176,-0.169907,0.869047,0.464638,-0.184509,-0.809584,-0.352059,-53.469757,120.567810,60.458740,,,,,,
1484000414.899980,-2.756994,-1.082470,1.107501,1.952151,0.948756,0.052699,-0.176019,0.883119,0.434877,-0.134635,-0.696565,-0.202088,-53.615311,121.541809,59.628723,,,,,,
1484000414.919969,-2.692592,-1.131525,1.151799,3.063791,1.472196,0.142793,-0.184599,0.905062,0.383127,-0.017595,-0.410555,0.047202,-53.615311,121.541809,59.628723,,,,,,
1484000414.939989,-2.589121,-1.193352,1.224068,3.360254,2.017146,0.260131,-0.193410,0.929610,0.313717,0.103002,0.201967,0.448947,-54.508148,123.042053,58.944885,,,,,,
1484000414.959978,-2.561852,-1.214000,1.237174,-1.415215,-0.410208,0.481338,-0.191335,0.937021,0.292204,0.261464,1.629126,1.661775,-55.023529,125.214050,56.458191,,,,,,
1484000414.979997,-2.632256,-1.153182,1.123874,-3.673761,3.578952,0.131801,-0.197760,0.914059,0.354099,0.529990,1.741382,1.662609,-56.222595,125.514282,55.329895,,,,,,
1484000414.999986,-2.620395,-1.127294,1.070190,-0.509431,1.909881,0.453130,-0.213660,0.903254,0.372130,0.114554,0.235982,0.016862,-56.750656,124.914795,55.182129,,,,,,
1484000415.020006,-2.632786,-1.138576,1.035047,0.195918,0.833554,1.206452,-0.204055,0.908038,0.365826,-0.140458,-0.862750,0.274234,-56.750656,124.914795,55.182129,,,,,,
1484000415.039995,-2.653343,-1.154417,1.017273,0.866845,-1.232892,0.205480,-0.189721,0.914559,0.357194,-0.342719,-0.498467,-0.556855,-56.447372,125.662964,54.278809,,,,,,
1484000415.060014,-2.654277,-1.176025,1.057654,1.477080,-1.790825,-0.244001,-0.180090,0.923084,0.339828,-0.546656,-0.063358,-1.028854,-56.293991,126.337769,54.275635,,,,,,
1484000415.080003,-2.627105,-1.200608,1.095425,1.388659,0.393901,0.079784,-0.178034,0.932259,0.314956,-0.522207,0.016227,-0.997512,-55.617279,126.637451,54.725159,,,,,,
1484000415.100023,-2.573606,-1.226661,1.140619,1.680677,0.358417,-0.105562,-0.181490,0.941368,0.284409,-0.098615,-0.153541,-0.635864,-55.235535,128.060669,53.968628,,,,,,
1484000415.120012,-2.538386,-1.238860,1.198789,0.213877,-2.123019,-0.767969,-0.184864,0.945413,0.268364,-0.050320,0.013281,0.253013,-55.235535,128.060669,53.968628,,,,,,
1484000415.140032,-2.521645,-1.234267,1.265061,1.132453,-1.744233,-1.037016,-0.191851,0.943907,0.268763,-0.079358,0.034701,-0.008631,-55.535538,128.135010,53.217834,,,,,,
1484000415.160021,-2.388262,-1.265265,1.417253,3.526283,-0.115214,-0.815007,-0.205768,0.953687,0.219408,-0.169094,0.129732,-0.553285,-55.238464,127.460876,54.121643,,,,,,
1484000415.180040,-2.143532,-1.309585,1.676989,4.456815,-0.444973,-0.497588,-0.217039,0.966078,0.139955,-0.025957,0.090212,-0.584351,-54.788086,127.609131,53.371582,,,,,,
1484000415.200029,-1.830472,-1.341334,2.019264,4.305435,-1.347970,-0.103127,-0.219828,0.973789,0.058403,0.076563,0.072628,-0.519111,-56.129318,129.706055,49.984131,,,,,,
1484000415.220049,-1.558442,-1.347541,2.344387,3.127736,-2.731816,-0.253448,-0.221389,0.975182,-0.002735,0.372054,0.213737,-0.397091,-56.129318,129.706055,49.984131,,,,,,
1484000415.240038,-1.425903,-1.334540,2.527709,1.590730,-1.724729,-0.598661,-0.231612,0.972221,-0.033796,0.364974,0.130211,-0.231661,-55.450912,130.527954,48.555969,,,,,,
1484000415.260062,-1.366716,-1.318075,2.592895,0.546540,0.764115,-0.650690,-0.244850,0.968236,-0.050675,0.293434,0.043941,0.078583,-55.451172,130.453247,48.781372,,,,,,
1484000415.280051,-1.330497,-1.305488,2.585495,-0.170737,2.876794,-0.666925,-0.254673,0.965012,-0.062404,0.064731,-0.043015,0.318110,-55.452011,130.303101,48.632141,,,,,,
1484000415.300071,-1.290029,-1.294586,2.559468,-0.121683,3.269902,-0.554679,-0.262033,0.962096,-0.075566,-0.068503,-0.092436,0.200109,-56.504730,129.853149,47.657776,,,,,,
1484000415.320060,-1.237007,-1.285696,2.564931,0.421134,1.719160,-0.289355,-0.265731,0.959633,-0.092146,-0.097383,-0.101815,-0.004289,-56.504730,129.853149,47.657776,,,,,,
1484000415.340080,-1.186324,-1.277733,2.607578,0.862034,-0.159372,-0.096766,-0.267796,0.957364,-0.108353,-0.050167,-0.076489,-0.069550,-57.035049,129.173218,43.835388,,,,,,
1484000415.360069,-1.141053,-1.268115,2.671507,1.174807,-1.071740,-0.084825,-0.270977,0.954541,-0.124192,0.054623,-0.130871,0.102127,-57.184891,129.247803,43.384766,,,,,,
1484000415.380089,-1.089220,-1.253316,2.749309,1.497886,-1.009359,-0.195653,-0.276669,0.950025,-0.144592,0.048169,-0.149854,0.416610,-57.485992,129.023315,43.460449,,,,,,
1484000415.400078,-1.040557,-1.235195,2.814820,1.213645,-0.451202,-0.321202,-0.284115,0.944212,-0.166559,0.112514,0.017335,0.215326,-57.335464,129.172424,43.009888,,,,,,
1484000415.420097,-1.003678,-1.219167,2.853925,0.908733,0.265913,-0.344394,-0.290509,0.938813,-0.185028,0.149517,0.049819,0.101196,-57.335464,129.172424,43.009888,,,,,,
1484000415.440085,-0.958005,-1.202013,2.891540,1.147446,0.590730,-0.351223,-0.294890,0.932767,-0.207332,0.088637,-0.030286,0.369350,-56.738510,128.645264,42.188416,,,,,,
1484000415.460105,-0.918053,-1.182305,2.931738,1.110267,-0.301321,-0.360819,-0.300921,0.925481,-0.230067,0.075259,-0.061010,0.505854,-57.415421,128.345032,41.364014,,,,,,
1484000415.480094,-0.920590,-1.167769,2.949316,0.467036,-1.168946,-0.369274,-0.312179,0.919878,-0.237421,0.206481,0.094450,0.319636,-57.867294,128.044617,40.614807,,,,,,
1484000415.500083,-0.938645,-1.158735,2.950813,0.248300,-0.736703,-0.334041,-0.323105,0.916297,-0.236647,0.349778,0.239861,0.343215,-57.717224,128.044617,40.765015,,,,,,
1484000415.520103,-0.944624,-1.152899,2.948004,0.023884,0.143395,-0.208777,-0.328842,0.913944,-0.237841,0.346359,0.288723,0.367083,-57.717224,128.044617,40.765015,,,,,,
1484000415.540092,-0.951728,-1.155450,2.935447,-0.522638,0.089532,0.050622,-0.328624,0.914977,-0.234146,0.177028,0.381486,0.486770,-58.095657,127.296082,41.368225,,,,,,
1484000415.560112,-1.000119,-1.171074,2.890613,-1.624481,-0.560387,0.203285,-0.327494,0.921169,-0.210227,0.104807,0.552860,0.506842,-58.320694,127.296265,41.292908,,,,,,
1484000415.580101,-1.095947,-1.198321,2.796586,-2.521553,-0.322066,0.333010,-0.323658,0.931429,-0.166387,0.077961,0.603071,0.350148,-58.543854,127.523743,42.716370,,,,,,
1484000415.600121,-1.242982,-1.229568,2.646337,-3.345295,-0.333628,0.451331,-0.316825,0.942344,-0.107747,-0.129739,0.342064,0.363927,-57.642059,127.749451,44.066528,,,,,,
1484000415.620110,-1.442684,-1.254937,2.437360,-3.567299,0.109206,0.483214,-0.308088,0.950530,-0.039687,-0.228686,0.058046,0.115279,-57.642059,127.749451,44.066528,,,,,,
1484000415.640129,-1.628860,-1.269186,2.239007,-2.588143,0.040090,0.668254,-0.296558,0.954859,0.017239,-0.319196,0.193349,-0.242351,-57.717102,127.527710,46.167603,,,,,,
1484000415.660118,-1.756095,-1.278003,2.120068,-1.191824,-1.272583,0.656601,-0.283687,0.957441,0.053177,-0.372853,0.426043,-0.568420,-57.415665,127.457581,49.768433,,,,,,
1484000415.680138,-1.890285,-1.288343,2.042351,-1.053159,-4.273748,0.864296,-0.264609,0.960375,0.087538,-0.265344,0.363295,-0.632491,-56.439011,127.682739,50.818726,,,,,,
1484000415.700126,-2.126043,-1.290178,1.919516,-1.762103,-6.461387,0.734520,-0.235344,0.960884,0.145995,-0.082924,0.358070,-0.246047,-56.213837,127.461243,53.370178,,,,,,
1484000415.720145,-2.348902,-1.278460,1.791304,-1.622395,-3.515252,0.670209,-0.205262,0.957573,0.202290,-0.090545,0.232170,0.436626,-56.213837,127.461243,53.370178,,,,,,
1484000415.740134,-2.453975,-1.274970,1.698948,-0.758546,0.452768,1.001844,-0.185033,0.956562,0.225283,-0.119364,0.055294,0.263243,-54.116867,126.488647,57.053223,,,,,,
1484000415.760154,-2.519658,-1.273066,1.600878,-1.192897,1.606003,1.105815,-0.170909,0.956005,0.238422,0.008906,-0.010036,-0.230152,-52.019257,125.665710,60.510437,,,,,,
1484000415.780143,-2.601705,-1.255645,1.483077,-2.026653,1.492757,0.899080,-0.159332,0.950749,0.265874,0.077301,-0.104787,-0.509221,-51.943726,125.814941,60.059875,,,,,,
1484000415.800163,-2.673847,-1.217760,1.374109,-2.806705,1.550012,0.508914,-0.155889,0.938327,0.308611,0.038793,-0.120929,-0.644838,-52.246567,125.215759,60.362305,,,,,,
1484000415.820152,-2.728766,-1.164936,1.286327,-3.198158,1.204983,0.278790,-0.158398,0.918763,0.361641,0.031780,-0.215867,-0.706902,-52.246567,125.215759,60.362305,,,,,,
1484000415.840172,-2.767841,-1.109418,1.218281,-3.008054,1.175866,0.271188,-0.162541,0.895440,0.414449,0.013401,-0.257836,-0.574743,-52.104111,123.715454,60.295044,,,,,,
1484000415.860161,-2.785535,-1.062221,1.164997,-2.399655,1.673688,0.347382,-0.169736,0.873439,0.456392,-0.074206,-0.319545,-0.446215,-52.571732,120.043335,61.737671,,,,,,
1484000415.880179,-2.783393,-1.030285,1.127380,-1.449067,1.670372,0.294684,-0.180404,0.857446,0.481914,-0.132035,-0.461923,-0.479518,-53.028519,118.693970,61.668823,,,,,,
1484000415.900168,-2.772301,-1.018171,1.109565,-0.299058,1.111514,0.190204,-0.189474,0.851149,0.489535,-0.129633,-0.673659,-0.504336,-53.555511,118.319458,61.444824,,,,,,
1484000415.920188,-2.754983,-1.026661,1.108017,0.781080,0.873603,0.193254,-0.195191,0.855575,0.479470,-0.115722,-0.799667,-0.379983,-53.555511,118.319458,61.444824,,,,,,
1484000415.940177,-2.720801,-1.054323,1.125890,1.876662,1.041445,0.103502,-0.201716,0.869566,0.450739,-0.103124,-0.730986,-0.188410,-53.929688,118.544067,60.843201,,,,,,
1484000415.960196,-2.656217,-1.103369,1.166964,3.091588,1.693078,0.296715,-0.210219,0.892730,0.398548,-0.042024,-0.542312,0.121823,-54.449631,119.594238,60.462158,,,,,,
1484000415.980186,-2.556649,-1.166591,1.230661,3.321809,2.218258,0.498387,-0.217155,0.919415,0.327902,0.091667,-0.020001,0.565058,-55.930969,123.641785,57.289673,,,,,,
1484000416.000206,-2.535448,-1.186411,1.239504,-1.522016,-0.666970,0.443897,-0.213633,0.927029,0.308185,0.112238,1.280262,1.218182,-57.496872,125.666016,55.252258,,,,,,
1484000416.020195,-2.593782,-1.124067,1.126314,-3.811566,4.483262,0.131120,-0.225003,0.901865,0.368799,0.405698,2.122381,2.238195,-57.496872,125.666016,55.252258,,,,,,
1484000416.040215,-2.576435,-1.097208,1.065499,-0.872134,2.250400,0.703539,-0.244255,0.889937,0.385164,0.270942,0.451234,-0.020342,-57.501938,124.616577,55.632507,,,,,,
1484000416.060204,-2.604301,-1.104206,1.017429,-0.017427,-0.038837,1.206744,-0.230235,0.893107,0.386460,0.108195,-0.991893,-0.084886,-57.955551,123.941467,55.110168,,,,,,
1484000416.080223,-2.628624,-1.122748,1.020963,1.364356,-1.870470,-0.161152,-0.212603,0.901295,0.377449,-0.237790,-0.691028,-0.654961,-56.973221,125.439575,54.804138,,,,,,
1484000416.100212,-2.611116,-1.146921,1.075815,1.600834,-1.170767,-0.337219,-0.208093,0.911502,0.354770,-0.625189,-0.214480,-1.253543,-56.370010,126.039368,55.252075,,,,,,
1484000416.120232,-2.575520,-1.171721,1.121359,1.548593,0.043010,-0.106033,-0.208397,0.921421,0.327956,-0.664971,0.149609,-0.907759,-56.370010,126.039368,55.252075,,,,,,
1484000416.140220,-2.517520,-1.190516,1.177309,1.075211,0.183653,-0.522026,-0.216898,0.928560,0.301215,0.002359,0.414305,0.139596,-56.742416,126.564819,55.173889,,,,,,
1484000416.160239,-2.493397,-1.190412,1.228432,0.604938,-1.739491,-0.853016,-0.224158,0.928522,0.295973,0.161673,0.153036,-0.069746,-56.815735,127.013184,54.046509,,,,,,
1484000416.180228,-2.432068,-1.205826,1.319574,2.366190,-0.627544,-0.778476,-0.232525,0.934134,0.270786,-0.025364,-0.073661,-0.420093,-56.966934,126.714294,54.647766,,,,,,
1484000416.200248,-2.275734,-1.240878,1.486066,3.622177,0.172185,-0.766299,-0.246749,0.946069,0.209925,-0.073594,0.002112,-0.484263,-57.489883,127.238342,53.519348,,,,,,
1484000416.220237,-2.039793,-1.277939,1.733086,3.759203,-0.311002,-0.456572,-0.257517,0.957423,0.130485,0.064554,-0.013636,-0.443320,-57.489883,127.238342,53.519348,,,,,,
1484000416.240257,-1.839223,-1.299513,1.966416,2.970286,-1.808675,-0.143499,-0.258372,0.963428,0.071069,0.273692,0.165433,-0.385248,-57.937119,127.986084,51.564941,,,,,,
1484000416.260205,-1.707385,-1.300082,2.142483,1.881230,-1.628800,-0.587373,-0.264929,0.963580,0.036413,0.305716,0.321088,-0.195929,-57.709503,128.658569,50.061951,,,,,,
1484000416.280225,-1.632393,-1.291100,2.232157,0.810940,0.160134,-0.543791,-0.275540,0.961139,0.016994,0.261654,0.147869,-0.016933,-58.232330,129.109131,49.908936,,,,,,
1484000416.300214,-1.573796,-1.282341,2.261962,0.212700,2.279037,-0.431777,-0.284471,0.958684,0.000853,0.155076,-0.070074,0.175599,-58.759293,128.808594,49.009644,,,,,,
1484000416.320203,-1.506954,-1.272826,2.268364,0.097669,3.296143,-0.479740,-0.292983,0.955934,-0.018730,0.009490,-0.176348,0.138695,-58.759293,128.808594,49.009644,,,,,,
1484000416.340222,-1.436632,-1.264429,2.281999,0.376654,2.420489,-0.316927,-0.298887,0.953435,-0.040342,-0.048113,-0.175436,-0.061892,-58.987213,128.430725,46.911194,,,,,,
1484000416.360211,-1.370068,-1.258652,2.322557,0.828518,0.794715,-0.128729,-0.300934,0.951677,-0.061230,0.015228,-0.154268,-0.120853,-59.289520,128.202637,44.586853,,,,,,
1484000416.380231,-1.307711,-1.252186,2.387450,1.186153,-0.295664,-0.058833,-0.302469,0.949672,-0.081464,0.066248,-0.131266,-0.029788,-59.440247,128.200745,43.161621,,,,,,
1484000416.400220,-1.245790,-1.242687,2.463443,1.332382,-0.565007,-0.144433,-0.305383,0.946653,-0.102900,0.006723,-0.106367,0.246196,-59.291748,127.974426,42.412964,,,,,,
1484000416.420239,-1.184806,-1.228756,2.533400,1.279746,-0.002648,-0.325903,-0.310732,0.942072,-0.126274,-0.052442,-0.073710,0.487617,-59.291748,127.974426,42.412964,,,,,,
1484000416.440228,-1.139046,-1.212872,2.578430,0.850017,0.181633,-0.466104,-0.318183,0.936626,-0.146600,0.054023,0.021199,0.164437,-59.742096,127.974060,41.737366,,,,,,
1484000416.460248,-1.113395,-1.197679,2.602174,0.723079,0.206058,-0.524387,-0.327048,0.931196,-0.160978,0.149237,0.027407,0.157866,-59.519424,127.597412,40.839539,,,,,,
1484000416.480237,-1.076553,-1.179240,2.635450,1.146863,0.315939,-0.541698,-0.335957,0.924316,-0.181031,0.177388,0.033569,0.329636,-59.897354,127.072021,40.241638,,,,,,
1484000416.500257,-1.040932,-1.158127,2.674348,1.088582,-0.317272,-0.548391,-0.346062,0.916054,-0.202700,0.222038,0.097573,0.412020,-60.500946,126.397339,39.794067,,,,,,
1484000416.520246,-1.043219,-1.143522,2.687921,0.317507,-0.816695,-0.440509,-0.358047,0.910098,-0.208622,0.316741,0.192029,0.354237,-60.500946,126.397339,39.794067,,,,,,
1484000416.540265,-1.054635,-1.135456,2.681641,0.008597,0.136012,-0.416710,-0.366778,0.906727,-0.208137,0.378267,0.232159,0.406700,-60.656387,125.420959,38.673767,,,,,,
1484000416.560254,-1.053377,-1.130514,2.666459,-0.287478,1.055856,-0.324177,-0.370406,0.904631,-0.210813,0.347212,0.243562,0.393750,-60.434235,124.820984,38.977051,,,,,,
1484000416.580274,-1.056997,-1.132709,2.638561,-0.772024,0.869904,-0.134309,-0.369436,0.905565,-0.208494,0.146413,0.361952,0.567869,-60.886642,124.371277,38.678650,,,,,,
1484000416.600263,-1.109252,-1.144429,2.580860,-1.754728,-0.461570,0.011745,-0.370293,0.910474,-0.184174,0.092537,0.492053,0.462815,-61.038483,124.070435,38.004944,,,,,,
1484000416.620282,-1.214088,-1.164052,2.480515,-2.485189,-0.669737,0.093478,-0.370717,0.918414,-0.138147,0.153188,0.536878,0.314142,-61.038483,124.070435,38.004944,,,,,,
1484000416.640271,-1.356057,-1.183176,2.340421,-3.123015,-0.590529,0.240990,-0.369305,0.925811,-0.080546,0.066784,0.240876,0.169886,-60.660538,124.448059,40.103577,,,,,,
1484000416.660291,-1.515883,-1.199545,2.168863,-3.269934,0.427024,0.511828,-0.362235,0.931874,-0.019911,-0.039605,0.147884,0.010634,-60.433456,124.675537,41.977783,,,,,,
1484000416.680280,-1.650319,-1.213907,2.005534,-2.580517,0.964566,0.862907,-0.348257,0.936988,0.027753,-0.074976,0.329156,-0.333890,-60.882248,124.753662,43.626709,,,,,,
1484000416.700299,-1.759396,-1.225408,1.887886,-1.577423,-0.672070,0.802178,-0.332558,0.940944,0.063475,-0.227775,0.509053,-0.603407,-60.353577,125.428772,44.224121,,,,,,
1484000416.720288,-1.891238,-1.235397,1.799718,-1.308664,-3.624224,0.904002,-0.312391,0.944279,0.103677,-0.194979,0.346294,-0.566689,-60.353577,125.428772,44.224121,,,,,,
1484000416.740308,-2.099494,-1.238791,1.687230,-1.812096,-5.674317,0.912712,-0.281437,0.945391,0.164407,-0.028576,0.283903,-0.152612,-59.747589,126.258362,47.895874,,,,,,
1484000416.760297,-2.309294,-1.230662,1.565064,-1.719072,-3.499325,0.868105,-0.246701,0.942710,0.224582,-0.056750,0.247751,0.423795,-58.621521,126.112122,51.498291,,,,,,
1484000416.780316,-2.398366,-1.232108,1.480152,-0.560246,1.119909,1.197271,-0.224823,0.943191,0.244632,-0.063172,0.106079,0.183377,-57.346802,125.666016,55.402466,,,,,,
1484000416.800305,-2.445585,-1.240273,1.386468,-0.972465,2.221109,1.517448,-0.208081,0.945873,0.249053,0.175839,0.080128,-0.292007,-56.592316,126.564880,55.399109,,,,,,
1484000416.820325,-2.522598,-1.235285,1.260868,-1.741049,2.048877,1.419408,-0.191037,0.944242,0.268163,0.238141,0.078783,-0.474782,-56.592316,126.564880,55.399109,,,,,,
1484000416.840314,-2.604847,-1.212534,1.129101,-2.397517,2.082693,1.136566,-0.179301,0.936508,0.301338,0.146204,0.000672,-0.609367,-56.589539,127.164124,54.946045,,,,,,
1484000416.860333,-2.670792,-1.177504,1.016866,-2.553996,1.850143,0.885357,-0.173834,0.923652,0.341538,0.092047,-0.172340,-0.664719,-56.734695,128.139343,54.866028,,,,,,
1484000416.880322,-2.716526,-1.140313,0.925852,-2.425856,2.005260,0.816469,-0.172091,0.908764,0.380174,-0.010206,-0.249173,-0.578736,-56.660904,127.913940,54.717224,,,,,,
1484000416.900342,-2.740609,-1.103416,0.849989,-2.304943,2.269650,0.756776,-0.175860,0.892752,0.414810,-0.135160,-0.323919,-0.588440,-56.661987,127.689087,54.793396,,,,,,
1484000416.920331,-2.752475,-1.070793,0.789715,-1.838178,1.955403,0.602295,-0.181882,0.877581,0.443588,-0.246204,-0.455920,-0.548767,-56.661987,127.689087,54.793396,,,,,,
1484000416.940351,-2.752609,-1.051557,0.748684,-0.888946,1.693031,0.566899,-0.188191,0.868197,0.459149,-0.256451,-0.640673,-0.444501,-56.437653,127.538879,54.944397,,,,,,
1484000416.960340,-2.741549,-1.052077,0.725290,0.212156,1.526479,0.518932,-0.193081,0.868455,0.456624,-0.195957,-0.706895,-0.295262,-57.036682,127.764404,54.642395,,,,,,
1484000416.980359,-2.710192,-1.071967,0.725267,1.359675,1.626912,0.348096,-0.200039,0.878143,0.434567,-0.136479,-0.639755,-0.070981,-57.484970,128.213440,53.589478,,,,,,
1484000417.000348,-2.649031,-1.112748,0.755182,2.573527,1.803196,0.280968,-0.209109,0.896917,0.389632,0.042147,-0.347631,0.155183,-57.330704,129.186523,52.384827,,,,,,
1484000417.020368,-2.552982,-1.165567,0.816568,2.985608,2.214499,0.229758,-0.218879,0.919012,0.327886,0.181006,0.065989,0.381358,-57.330704,129.186523,52.384827,,,,,,
1484000417.040357,-2.457840,-1.199081,0.870964,0.775339,1.995731,0.093011,-0.229444,0.931706,0.281566,0.037336,0.711589,0.804951,-57.551636,130.233337,50.054321,,,,,,
1484000417.060376,-2.498196,-1.164508,0.787502,-3.695551,2.472523,0.151744,-0.237089,0.918594,0.316187,0.246900,1.403336,1.769216,-58.596451,131.727966,45.470276,,,,,,
1484000417.080365,-2.499154,-1.121252,0.702054,-1.809440,3.536634,0.323270,-0.260363,0.900645,0.347921,0.493472,0.583730,0.312785,-58.824265,131.128845,45.847961,,,,,,
1484000417.100385,-2.531561,-1.119719,0.650847,-0.371191,-0.662966,1.193749,-0.249744,0.899978,0.357306,0.294956,-0.589324,-0.022940,-58.599640,131.127441,45.098267,,,,,,
1484000417.120374,-2.577000,-1.137273,0.625429,1.109272,-1.083510,0.468689,-0.224768,0.907491,0.354879,0.008795,-0.396184,-0.210683,-58.599640,131.127441,45.098267,,,,,,
1484000417.140393,-2.541143,-1.167708,0.680003,2.042017,-0.578936,-0.207292,-0.221633,0.919854,0.323647,-0.399461,0.121848,-1.226724,-58.219391,132.102966,45.843994,,,,,,
1484000417.160382,-2.498296,-1.190984,0.728042,1.021200,0.163429,0.119106,-0.222387,0.928734,0.296643,-0.740229,0.226249,-1.102047,-57.540802,132.777649,46.291565,,,,,,
1484000417.180371,-2.471138,-1.199228,0.752943,0.528800,0.160655,-0.363299,-0.225595,0.931759,0.284485,-0.237112,-0.001995,-0.552262,-57.239212,133.299194,44.264465,,,,,,
1484000417.200391,-2.459667,-1.183321,0.773060,-1.104553,-0.665022,-1.101494,-0.238156,0.925866,0.293349,-0.028613,-0.147897,0.640565,-57.543182,132.548950,43.817749,,,,,,
1484000417.220380,-2.405033,-1.164440,0.823321,0.958966,1.091040,-1.307686,-0.265517,0.918567,0.292806,-0.057130,-0.117557,-0.154363,-57.543182,132.548950,43.817749,,,,,,
1484000417.240399,-2.257555,-1.184589,0.951334,3.217901,1.510529,-0.816157,-0.291287,0.926344,0.238826,-0.018924,0.234712,-0.725628,-58.444855,132.101929,44.943604,,,,,,
1484000417.260387,-2.057176,-1.216673,1.145612,3.995066,0.547740,-0.455575,-0.306554,0.937951,0.162089,0.144246,0.303611,-0.743113,-58.601318,131.048584,42.548584,,,,,,
1484000417.280407,-1.869931,-1.238488,1.349840,3.190884,-0.704709,-0.275928,-0.311739,0.945292,0.096137,0.359926,0.409658,-0.671164,-58.461807,129.465637,37.381775,,,,,,
