timestamp(unix),attitude_roll(radians),attitude_pitch(radians),attitude_yaw(radians),rotation_rate_x(radians/s),rotation_rate_y(radians/s),rotation_rate_z(radians/s),gravity_x(G),gravity_y(G),gravity_z(G),user_acc_x(G),user_acc_y(G),user_acc_z(G),magnetic_field_x(microteslas),magnetic_field_y(microteslas),magnetic_field_z(microteslas),latitude(degree),longitude(degree),altitude(meter),speed(m/s),course(degree),timestamp(unix)
,,,,,,,,,,,,,,,,33.759176,-118.389183,321.613190,-1.000000,-1.000000,1484020758.886341
1484020758.923140,-1.481806,0.011559,-2.528704,0.001493,-0.005973,0.001157,-0.995976,-0.011559,-0.088867,0.011388,0.000481,-0.000336,-48.969376,31.596741,50.935364,,,,,,
,,,,,,,,,,,,,,,,33.759177,-118.389181,321.613190,-1.000000,-1.000000,1484020747.255295
1484020758.943129,-1.481892,0.011594,-2.528679,0.000426,-0.005981,0.001153,-0.995984,-0.011594,-0.088781,0.014248,-0.000003,0.001059,-48.969376,31.596741,50.935364,,,,,,
1484020758.963148,-1.482033,0.011623,-2.528680,-0.000633,-0.007052,0.001164,-0.995996,-0.011623,-0.088641,0.012094,-0.001195,0.001254,-48.670013,31.446594,51.161621,,,,,,
1484020758.983137,-1.482140,0.011668,-2.528655,0.001485,-0.004911,0.001140,-0.996005,-0.011668,-0.088534,0.010775,-0.001150,0.001925,-49.494263,31.597839,51.159607,,,,,,
1484020759.003126,-1.482239,0.011688,-2.528614,0.001485,-0.004910,0.001140,-0.996013,-0.011688,-0.088436,0.009914,0.000137,0.002025,-49.120026,31.447266,51.160950,,,,,,
1484020759.023146,-1.482209,0.011660,-2.528569,0.003609,-0.002764,-0.001015,-0.996011,-0.011659,-0.088465,0.011270,0.001787,-0.002599,-48.746292,31.221313,50.862610,,,,,,
1484020759.043135,-1.482131,0.011576,-2.528541,0.001488,-0.004904,0.000075,-0.996005,-0.011575,-0.088544,0.010699,0.003458,-0.004520,-48.746292,31.221313,50.862610,,,,,,
1484020759.063154,-1.482039,0.011557,-2.528520,0.002555,-0.004891,0.000079,-0.995997,-0.011557,-0.088634,0.012034,0.001440,-0.004734,-49.119720,31.522095,51.010559,,,,,,
1484020759.083143,-1.481924,0.011518,-2.528493,0.000411,-0.003845,0.001126,-0.995987,-0.011518,-0.088750,0.012864,-0.000400,-0.004039,-49.194489,31.522888,51.460449,,,,,,
1484020759.103163,-1.481914,0.011538,-2.528471,-0.000637,-0.005974,0.000085,-0.995986,-0.011538,-0.088759,0.010360,0.000262,-0.001893,-48.970016,31.447021,51.161133,,,,,,
1484020759.123152,-1.481942,0.011522,-2.528473,0.000422,-0.004901,0.000073,-0.995989,-0.011522,-0.088732,0.008684,0.000337,0.000124,-49.119766,31.521973,50.935547,,,,,,
1484020759.143171,-1.481980,0.011502,-2.528481,-0.000660,-0.002787,0.000043,-0.995993,-0.011502,-0.088694,0.011785,0.001004,0.000361,-49.119766,31.521973,50.935547,,,,,,
1484020759.163160,-1.482021,0.011479,-2.528483,0.000429,-0.005961,0.000088,-0.995996,-0.011479,-0.088653,0.010492,-0.000713,-0.002168,-48.668106,31.821716,51.234741,,,,,,
1484020759.183180,-1.482025,0.011532,-2.528448,0.001493,-0.005950,0.001156,-0.995996,-0.011532,-0.088648,0.010202,-0.001560,-0.002599,-49.044525,31.522522,51.385620,,,,,,
1484020759.203169,-1.482004,0.011556,-2.528425,0.001496,-0.005947,0.000089,-0.995994,-0.011556,-0.088670,0.011802,-0.000468,-0.002638,-48.971710,31.146484,50.787659,,,,,,
1484020759.223188,-1.481961,0.011571,-2.528398,0.000406,-0.002769,0.000044,-0.995990,-0.011570,-0.088712,0.011386,0.000554,-0.002886,-48.820312,31.372131,51.311707,,,,,,
1484020759.243177,-1.481894,0.011594,-2.528360,0.001484,-0.003817,-0.001006,-0.995984,-0.011594,-0.088779,0.013364,-0.000277,-0.002896,-48.820312,31.372131,51.311707,,,,,,
1484020759.263197,-1.481899,0.011617,-2.528337,0.001478,-0.003817,0.001127,-0.995984,-0.011617,-0.088774,0.010968,-0.001170,-0.001131,-49.120026,31.447266,51.160950,,,,,,
1484020759.283186,-1.481911,0.011625,-2.528317,0.000422,-0.004885,0.000071,-0.995985,-0.011625,-0.088762,0.010771,-0.000338,-0.000776,-49.269943,31.447754,51.310669,,,,,,
1484020759.303206,-1.481924,0.011666,-2.528294,0.000422,-0.004884,0.000070,-0.995986,-0.011665,-0.088750,0.012374,-0.001945,-0.001964,-49.045395,31.372192,51.161438,,,,,,
1484020759.323195,-1.481934,0.011624,-2.528275,0.001489,-0.004873,0.000074,-0.995987,-0.011624,-0.088739,0.010574,0.001538,-0.001074,-48.971100,31.222168,51.237305,,,,,,
1484020759.343214,-1.481936,0.011595,-2.528231,0.002558,-0.004861,-0.000989,-0.995988,-0.011595,-0.088737,0.012650,0.001326,-0.003899,-48.971100,31.222168,51.237305,,,,,,
1484020759.363203,-1.481926,0.011529,-2.528207,0.000419,-0.004879,0.001139,-0.995987,-0.011529,-0.088748,0.012589,0.001870,-0.001752,-48.968628,31.672852,51.684937,,,,,,
1484020759.383223,-1.481907,0.011482,-2.528183,0.000422,-0.004876,0.000073,-0.995986,-0.011482,-0.088766,0.009857,0.001686,-0.002298,-48.820129,31.446533,50.936340,,,,,,
1484020759.403200,-1.481876,0.011454,-2.528149,0.002536,-0.002733,0.001118,-0.995984,-0.011454,-0.088797,0.012967,0.000009,-0.002283,-48.971634,31.146729,50.937622,,,,,,
1484020759.423189,-1.481868,0.011493,-2.528122,0.001492,-0.004861,-0.000990,-0.995983,-0.011492,-0.088806,0.011806,-0.001828,-0.003037,-49.495239,31.373352,51.460754,,,,,,
1484020759.443208,-1.481944,0.011543,-2.528082,0.002563,-0.005913,0.000092,-0.995989,-0.011542,-0.088729,0.012713,-0.000970,0.000228,-49.495239,31.373352,51.460754,,,,,,
1484020759.463197,-1.481979,0.011604,-2.528047,0.001496,-0.005921,0.000088,-0.995991,-0.011603,-0.088694,0.010289,-0.001855,-0.000768,-49.345123,31.447327,50.935547,,,,,,
1484020759.483217,-1.482042,0.011636,-2.528008,0.001489,-0.004859,0.000073,-0.995996,-0.011636,-0.088632,0.008310,-0.000022,-0.001120,-48.744492,31.596069,50.710754,,,,,,
1484020759.503206,-1.482040,0.011605,-2.527968,0.001481,-0.003796,0.000060,-0.995997,-0.011604,-0.088633,0.012186,0.002052,-0.001866,-48.970963,31.296509,50.786926,,,,,,
1484020759.523226,-1.481925,0.011587,-2.527930,0.002552,-0.004845,0.001144,-0.995987,-0.011587,-0.088748,0.012863,0.000723,-0.002865,-49.045319,31.372437,51.311401,,,,,,
1484020759.543215,-1.481843,0.011569,-2.527886,0.002555,-0.004841,0.000077,-0.995980,-0.011569,-0.088830,0.011757,0.000689,-0.004157,-49.045319,31.372437,51.311401,,,,,,
1484020759.563235,-1.481796,0.011586,-2.527858,0.000425,-0.004855,-0.000995,-0.995975,-0.011585,-0.088877,0.010669,0.000279,-0.002478,-49.346619,31.147339,50.937073,,,,,,
1484020759.583224,-1.481764,0.011549,-2.527834,0.001481,-0.003783,0.000061,-0.995973,-0.011549,-0.088909,0.010163,0.000044,-0.002064,-49.121338,31.221741,50.787048,,,,,,
1484020759.603242,-1.481763,0.011474,-2.527812,0.002558,-0.004832,-0.000987,-0.995974,-0.011474,-0.088910,0.010744,0.002883,-0.001788,-48.671249,31.221313,50.937683,,,,,,
1484020759.623231,-1.481731,0.011438,-2.527795,0.001492,-0.004838,-0.000989,-0.995971,-0.011437,-0.088942,0.010772,0.001779,-0.003145,-49.421432,31.147949,51.311951,,,,,,
1484020759.643251,-1.481746,0.011382,-2.527765,0.000419,-0.004848,0.001141,-0.995973,-0.011381,-0.088927,0.011018,0.002638,-0.001847,-49.421432,31.147949,51.311951,,,,,,
1484020759.663240,-1.481776,0.011346,-2.527746,0.001488,-0.004837,0.000078,-0.995976,-0.011346,-0.088898,0.011128,0.001473,0.000137,-49.045502,31.371887,50.936401,,,,,,
1484020759.683259,-1.481780,0.011326,-2.527723,0.001496,-0.005896,0.000093,-0.995977,-0.011325,-0.088893,0.010930,0.001529,-0.002110,-49.270432,31.372498,51.086060,,,,,,
1484020759.703249,-1.481822,0.011341,-2.527699,0.001493,-0.005896,0.001159,-0.995980,-0.011341,-0.088851,0.011560,-0.001828,-0.000794,-48.744461,31.596191,50.785767,,,,,,
1484020759.723269,-1.481886,0.011356,-2.527670,0.001493,-0.005895,0.001159,-0.995986,-0.011356,-0.088788,0.010939,0.000461,-0.000079,-49.120209,31.372925,51.536316,,,,,,
1484020759.743258,-1.481921,0.011403,-2.527631,0.001499,-0.005891,-0.000975,-0.995988,-0.011402,-0.088752,0.011064,-0.000774,-0.001793,-49.120209,31.372925,51.536316,,,,,,
1484020759.763278,-1.481962,0.011427,-2.527607,0.001485,-0.004830,0.001144,-0.995992,-0.011427,-0.088712,0.012136,-0.000383,-0.001605,-48.819763,31.521545,50.935974,,,,,,
1484020759.783267,-1.481979,0.011427,-2.527567,0.002563,-0.005879,0.000094,-0.995993,-0.011426,-0.088695,0.011466,-0.000476,-0.001316,-49.196136,31.222412,51.161926,,,,,,
1484020759.803285,-1.481960,0.011442,-2.527513,0.002555,-0.004816,0.000080,-0.995991,-0.011442,-0.088714,0.009984,-0.000247,-0.002457,-49.045273,31.372559,51.386414,,,,,,
1484020759.823274,-1.481935,0.011450,-2.527491,0.001484,-0.003760,-0.001004,-0.995989,-0.011449,-0.088738,0.012179,-0.000681,-0.000815,-48.970062,31.446960,51.086121,,,,,,
1484020759.843263,-1.481900,0.011485,-2.527456,0.001486,-0.004821,0.001142,-0.995986,-0.011485,-0.088774,0.012724,-0.001363,-0.002611,-48.970062,31.446960,51.086121,,,,,,
1484020759.863283,-1.481922,0.011473,-2.527427,0.001493,-0.005881,0.001157,-0.995988,-0.011473,-0.088752,0.010300,-0.000322,-0.002007,-48.895020,31.446960,51.161255,,,,,,
1484020759.883272,-1.481972,0.011399,-2.527391,0.000434,-0.006951,0.001169,-0.995993,-0.011399,-0.088702,0.011084,0.003540,-0.002316,-48.819260,31.596863,51.160645,,,,,,
1484020759.903291,-1.481970,0.011368,-2.527345,0.002552,-0.004807,0.001147,-0.995993,-0.011367,-0.088704,0.011176,-0.001130,-0.001506,-49.493988,31.598633,51.684509,,,,,,
1484020759.923280,-1.481940,0.011355,-2.527323,0.000422,-0.004822,0.000075,-0.995991,-0.011355,-0.088734,0.011448,0.001361,-0.003109,-49.118225,31.822083,51.009033,,,,,,
1484020759.943300,-1.481920,0.011376,-2.527294,0.000422,-0.004820,0.000074,-0.995989,-0.011376,-0.088754,0.010652,-0.000389,-0.002845,-49.118225,31.822083,51.009033,,,,,,
1484020759.963289,-1.481872,0.011409,-2.527267,0.002551,-0.003736,-0.001001,-0.995984,-0.011409,-0.088801,0.012067,-0.000127,-0.003240,-48.895126,31.446655,50.936218,,,,,,
1484020759.983309,-1.481862,0.011421,-2.527242,0.001486,-0.004807,0.001143,-0.995983,-0.011421,-0.088811,0.011562,-0.000267,-0.002696,-49.420380,31.372742,51.160828,,,,,,
1484020760.003298,-1.481868,0.011414,-2.527218,0.001489,-0.004804,0.000076,-0.995984,-0.011414,-0.088805,0.012310,-0.000015,-0.002595,-49.419601,31.522827,51.235107,,,,,,
1484020760.023318,-1.481858,0.011411,-2.527215,-0.000655,-0.003760,0.001123,-0.995983,-0.011411,-0.088815,0.011730,-0.000232,-0.000845,-48.894180,31.597229,51.310486,,,,,,
1484020760.043307,-1.481870,0.011405,-2.527201,0.000419,-0.004811,0.001139,-0.995984,-0.011405,-0.088803,0.010556,0.000952,-0.001498,-48.894180,31.597229,51.310486,,,,,,
1484020760.063325,-1.481921,0.011449,-2.527171,0.001489,-0.004799,0.000075,-0.995988,-0.011449,-0.088753,0.011735,-0.001277,-0.000694,-48.745209,31.446167,50.786499,,,,,,
1484020760.083314,-1.481970,0.011426,-2.527130,0.002548,-0.003727,0.000064,-0.995993,-0.011426,-0.088704,0.010946,0.000897,-0.000545,-49.569138,31.598328,51.384460,,,,,,
1484020760.103334,-1.481943,0.011428,-2.527098,0.001485,-0.003733,-0.001005,-0.995990,-0.011427,-0.088731,0.011157,0.001814,-0.002715,-49.195358,31.372559,51.236206,,,,,,
1484020760.123323,-1.481943,0.011384,-2.527064,0.001492,-0.004793,-0.000990,-0.995991,-0.011384,-0.088730,0.011890,0.002717,-0.001235,-48.670547,31.371216,50.862000,,,,,,
1484020760.143342,-1.481933,0.011376,-2.527036,0.000422,-0.004801,0.000073,-0.995990,-0.011376,-0.088741,0.009555,-0.000572,-0.001820,-48.670547,31.371216,50.862000,,,,,,
1484020760.163332,-1.481942,0.011366,-2.527011,0.002552,-0.004781,0.001146,-0.995991,-0.011365,-0.088732,0.012211,0.000135,-0.001906,-48.894531,31.522339,51.385864,,,,,,
1484020760.183352,-1.481936,0.011348,-2.526976,0.001486,-0.004789,0.001143,-0.995990,-0.011348,-0.088738,0.012546,0.000789,-0.002281,-47.693787,31.670532,51.386902,,,,,,
1484020760.203341,-1.481937,0.011366,-2.526932,0.002556,-0.004776,0.000079,-0.995990,-0.011366,-0.088737,0.011081,0.001906,-0.001519,-49.119385,31.596985,50.935120,,,,,,
1484020760.223361,-1.481911,0.011345,-2.526898,0.000419,-0.004793,0.001140,-0.995988,-0.011345,-0.088763,0.011186,-0.000649,-0.001859,-49.194992,31.521423,50.485474,,,,,,
1484020760.243350,-1.481899,0.011381,-2.526869,0.001489,-0.004781,0.000075,-0.995987,-0.011381,-0.088775,0.010299,-0.001620,-0.002763,-49.194992,31.521423,50.485474,,,,,,
1484020760.263339,-1.481916,0.011419,-2.526841,0.001492,-0.004778,-0.000992,-0.995988,-0.011419,-0.088758,0.011796,0.000417,-0.000445,-48.669449,31.596069,50.785889,,,,,,
1484020760.283357,-1.481921,0.011379,-2.526817,0.000419,-0.004787,0.001139,-0.995989,-0.011379,-0.088753,0.012468,-0.000385,-0.001122,-49.342911,31.823303,51.608704,,,,,,
1484020760.303346,-1.481906,0.011418,-2.526798,0.001489,-0.004774,0.000075,-0.995987,-0.011418,-0.088768,0.010941,-0.002010,-0.001381,-48.893509,31.747009,51.159790,,,,,,
1484020760.323366,-1.481955,0.011424,-2.526785,0.001497,-0.005835,0.000088,-0.995991,-0.011423,-0.088719,0.008900,-0.000356,-0.000453,-48.819977,31.446960,51.236389,,,,,,
1484020760.343355,-1.481916,0.011425,-2.526763,0.000411,-0.002656,-0.001023,-0.995988,-0.011425,-0.088758,0.014634,0.001797,-0.003970,-48.819977,31.446960,51.236389,,,,,,
1484020760.363374,-1.481950,0.011458,-2.526745,0.000423,-0.004778,0.000071,-0.995990,-0.011457,-0.088724,0.011081,-0.001513,-0.000616,-49.119186,31.597534,51.310120,,,,,,
1484020760.383363,-1.481945,0.011490,-2.526711,0.001494,-0.005829,0.001154,-0.995990,-0.011490,-0.088729,0.010394,-0.000610,-0.000428,-49.118851,31.672424,51.234802,,,,,,
1484020760.403368,-1.481929,0.011412,-2.526703,0.000420,-0.004775,0.001138,-0.995989,-0.011411,-0.088744,0.011599,0.002577,-0.002564,-48.895309,31.372253,51.311584,,,,,,
1484020760.423357,-1.481900,0.011404,-2.526676,0.002567,-0.005813,-0.000975,-0.995987,-0.011404,-0.088773,0.010192,-0.000574,-0.002520,-48.670059,31.446533,51.086609,,,,,,
1484020760.443376,-1.481932,0.011413,-2.526661,0.000407,-0.002646,0.000043,-0.995989,-0.011413,-0.088741,0.009722,-0.001588,0.000851,-48.670059,31.446533,51.086609,,,,,,
1484020760.463365,-1.481927,0.011427,-2.526626,0.001486,-0.004759,0.001140,-0.995989,-0.011426,-0.088747,0.013460,-0.000887,-0.001875,-49.344528,31.523010,51.385193,,,,,,
1484020760.483385,-1.481906,0.011434,-2.526596,0.000423,-0.004765,0.000071,-0.995987,-0.011434,-0.088768,0.009781,0.000569,-0.002724,-48.894684,31.521912,51.085876,,,,,,
1484020760.503374,-1.481795,0.011455,-2.526393,0.011055,-0.000424,0.001110,-0.995977,-0.011455,-0.088878,0.012731,-0.000554,-0.002949,-48.895386,31.372009,51.161621,,,,,,
1484020760.523393,-1.481618,0.011449,-2.526114,0.013139,0.005964,0.002097,-0.995961,-0.011449,-0.089054,0.010243,0.000142,-0.001629,-48.967880,31.822815,51.684204,,,,,,
1484020760.543382,-1.481405,0.011431,-2.525772,0.018464,0.007074,0.002098,-0.995942,-0.011431,-0.089266,0.013871,-0.000807,-0.001524,-48.967880,31.822815,51.684204,,,,,,
1484020760.563402,-1.481240,0.011496,-2.525483,0.012108,0.000651,0.003230,-0.995927,-0.011496,-0.089430,0.011094,-0.002863,-0.001741,-49.118896,31.672302,51.159790,,,,,,
1484020760.583391,-1.481141,0.011538,-2.525289,0.008914,0.000628,0.001087,-0.995917,-0.011537,-0.089530,0.008552,-0.000853,-0.003473,-48.970551,31.371643,50.861572,,,,,,
1484020760.603411,-1.481050,0.011534,-2.525058,0.014247,0.000676,0.001102,-0.995909,-0.011533,-0.089620,0.010283,0.001279,-0.001093,-48.595886,31.296204,50.937439,,,,,,
1484020760.623400,-1.480963,0.011588,-2.524802,0.013212,-0.003577,0.001155,-0.995901,-0.011588,-0.089707,0.015707,-0.002648,-0.003402,-49.194534,31.522766,51.385437,,,,,,
1484020760.643420,-1.480906,0.011569,-2.524523,0.014278,-0.003565,0.001158,-0.995896,-0.011569,-0.089763,0.012040,0.000888,-0.003605,-49.194534,31.522766,51.385437,,,,,,
1484020760.663408,-1.480915,0.011505,-2.524286,0.012145,-0.003582,0.001153,-0.995897,-0.011505,-0.089754,0.006350,0.002304,-0.001204,-48.746185,31.221680,51.087585,,,,,,
1484020760.683397,-1.480881,0.011457,-2.524097,0.007855,-0.000434,0.001100,-0.995895,-0.011456,-0.089788,0.008606,0.001233,0.000402,-48.520432,31.371338,51.087219,,,,,,
1484020760.703417,-1.480791,0.011435,-2.523949,0.007874,-0.002553,0.000063,-0.995887,-0.011434,-0.089878,0.011878,0.000799,-0.001293,-48.970139,31.446716,50.936096,,,,,,
1484020760.723406,-1.480762,0.011434,-2.523819,0.005756,-0.004693,0.000085,-0.995884,-0.011434,-0.089907,0.012852,-0.000651,-0.001355,-48.969833,31.447632,51.536133,,,,,,
1484020760.743425,-1.480792,0.011491,-2.523715,0.003631,-0.005771,0.000092,-0.995887,-0.011491,-0.089877,0.014106,-0.000930,-0.000059,-48.969833,31.447632,51.536133,,,,,,
1484020760.763414,-1.480827,0.011524,-2.523649,0.003634,-0.005769,-0.000975,-0.995889,-0.011524,-0.089842,0.008890,-0.000226,-0.001650,-48.895279,31.372375,51.386597,,,,,,
1484020760.783434,-1.480827,0.011515,-2.523600,0.001520,-0.007907,-0.002019,-0.995889,-0.011514,-0.089842,0.009531,0.000955,-0.003618,-48.671555,31.146545,51.088074,,,,,,
1484020760.803423,-1.480873,0.011480,-2.523552,0.001601,-0.019579,-0.000796,-0.995894,-0.011480,-0.089796,0.015517,0.000082,-0.006121,-48.745361,31.371887,51.236877,,,,,,
1484020760.823442,-1.481127,0.011529,-2.523518,0.001682,-0.030189,-0.001722,-0.995916,-0.011529,-0.089543,0.014395,0.000497,-0.005656,-48.896027,31.222351,51.387390,,,,,,
1484020760.843431,-1.483517,0.011544,-2.523488,0.002773,-0.326335,0.001146,-0.996127,-0.011544,-0.087163,0.006793,-0.001213,-0.092357,-48.896027,31.222351,51.387390,,,,,,
1484020760.863451,-1.495057,0.011520,-2.523325,0.010064,-0.740292,0.002396,-0.997067,-0.011520,-0.075662,0.012631,0.000305,-0.118140,-48.669495,31.522095,51.461243,,,,,,
1484020760.883440,-1.517435,0.011358,-2.523111,0.014973,-1.415430,0.012440,-0.998512,-0.011358,-0.053333,0.019981,-0.004969,-0.230130,-48.369232,31.522461,51.986633,,,,,,
1484020760.903459,-1.554018,0.011166,-2.522994,-0.013305,-1.923114,0.009499,-0.999797,-0.011165,-0.016777,0.035090,-0.001438,-0.118355,-49.342850,31.675720,53.184387,,,,,,
1484020760.923448,-1.578521,0.011112,-2.525007,-0.042736,-0.814005,0.004290,-0.999908,-0.011112,0.007724,0.019577,-0.007351,0.280026,-49.341797,31.752747,54.534058,,,,,,
1484020760.943468,-1.591535,0.011112,-2.524845,0.007327,-0.656447,-0.000858,-0.999723,-0.011111,0.020736,0.010099,0.007709,-0.016632,-49.341797,31.752747,54.534058,,,,,,
1484020760.963457,-1.606717,0.011135,-2.525039,-0.031328,-0.913690,0.000313,-0.999293,-0.011135,0.035910,0.013026,0.092861,-0.054725,-49.192169,31.603638,55.285034,,,,,,
1484020760.983476,-1.630290,0.011600,-2.526401,-0.104753,-1.206215,-0.055743,-0.998164,-0.011600,0.059455,-0.008764,-0.064084,-0.050971,-49.641632,31.605896,56.334290,,,,,,
1484020761.003465,-1.660036,0.016444,-2.530646,-0.316504,-1.727931,-0.377933,-0.995886,-0.016443,0.089109,-0.109140,0.113504,-0.135023,-49.117233,31.381653,57.386230,,,,,,
1484020761.023485,-1.672609,0.028494,-2.528144,0.380766,0.351777,-0.714991,-0.994418,-0.028491,0.101596,-0.037916,0.065249,0.646542,-48.595184,30.707092,58.215393,,,,,,
1484020761.043474,-1.669582,0.043650,-2.518524,0.458825,0.226240,-0.828293,-0.994177,-0.043636,0.098531,0.005026,0.023998,0.041773,-48.595184,30.707092,58.215393,,,,,,
1484020761.063494,-1.666176,0.058965,-2.506956,0.518560,0.209738,-0.788439,-0.993725,-0.058931,0.095070,0.031444,0.057741,-0.040123,-48.372101,30.331665,58.142578,,,,,,
1484020761.083483,-1.660624,0.070973,-2.495470,0.501535,0.410027,-0.579962,-0.993461,-0.070913,0.089481,0.057380,0.017813,-0.064045,-48.079727,28.904785,57.175171,,,,,,
1484020761.103472,-1.646889,0.081013,-2.486319,0.345447,1.023280,-0.535220,-0.993836,-0.080924,0.075770,-0.055633,-0.036218,-0.048838,-47.859344,28.004150,56.954956,,,,,,
1484020761.123491,-1.616184,0.094442,-2.480385,0.225106,1.839922,-0.813054,-0.994518,-0.094301,0.045170,-0.142933,0.035433,-0.036076,-47.862076,27.552673,55.982239,,,,,,
1484020761.143480,-1.579409,0.113737,-2.474250,0.348017,1.758424,-1.050537,-0.993502,-0.113492,0.008557,-0.204176,0.048398,-0.072186,-47.862076,27.552673,55.982239,,,,,,
1484020761.163500,-1.554187,0.135003,-2.465087,0.506730,1.063418,-1.060054,-0.990764,-0.134594,-0.016457,-0.181446,-0.022282,-0.099098,-48.090759,27.024841,53.884583,,,,,,
1484020761.183489,-1.536931,0.156100,-2.456516,0.384692,0.973167,-1.049606,-0.987275,-0.155467,-0.033447,-0.182434,-0.121266,-0.110199,-47.877899,24.919739,50.670410,,,,,,
1484020761.203508,-1.510314,0.177529,-2.453677,0.058850,1.632768,-1.066762,-0.982483,-0.176598,-0.059495,-0.232879,-0.157966,-0.104522,-47.432404,24.166870,49.174805,,,,,,
1484020761.223497,-1.469611,0.199004,-2.457910,-0.219119,2.178169,-1.118528,-0.975250,-0.197693,-0.099019,-0.193939,-0.136764,-0.104701,-46.836929,23.487549,46.929077,,,,,,
1484020761.243517,-1.423485,0.220352,-2.467801,-0.419470,2.156255,-1.126277,-0.965252,-0.218573,-0.143230,-0.070927,-0.189660,-0.101139,-46.836929,23.487549,46.929077,,,,,,
1484020761.263506,-1.382684,0.240403,-2.482362,-0.611358,1.687440,-1.087538,-0.954108,-0.238094,-0.181627,0.020438,-0.211018,-0.138563,-46.245651,22.056885,43.787170,,,,,,
1484020761.283525,-1.346630,0.257842,-2.502522,-0.890276,1.606431,-1.073396,-0.942749,-0.254994,-0.214945,0.135804,-0.158092,-0.144262,-45.575928,21.301453,40.791992,,,,,,
1484020761.303514,-1.299129,0.274583,-2.529527,-1.146850,2.312373,-1.181628,-0.927237,-0.271145,-0.258286,0.109564,-0.122852,-0.149963,-43.336395,19.789307,34.952820,,,,,,
1484020761.323534,-1.235205,0.292326,-2.561474,-1.214343,3.025384,-1.400339,-0.904158,-0.288181,-0.315356,0.088134,-0.029309,-0.126752,-42.216965,19.032349,31.433350,,,,,,
1484020761.343524,-1.154409,0.312641,-2.596531,-1.188783,3.858128,-1.639572,-0.870223,-0.307573,-0.384853,0.137282,0.042192,-0.028935,-42.216965,19.032349,31.433350,,,,,,
1484020761.363542,-1.061112,0.332061,-2.634389,-1.133913,3.966954,-1.705922,-0.825214,-0.325992,-0.461249,0.151005,0.064212,-0.023325,-40.274155,17.973694,27.616516,,,,,,
1484020761.383531,-0.987018,0.352924,-2.671175,-0.805557,2.455097,-1.870497,-0.782959,-0.345643,-0.517209,0.165024,0.065950,-0.095523,-37.886108,16.013611,23.279907,,,,,,
1484020761.403532,-0.945649,0.379057,-2.707203,-0.563054,0.926702,-2.176956,-0.753316,-0.370044,-0.543674,0.201162,0.060703,-0.084652,-32.655548,12.845032,16.103577,,,,,,
1484020761.423521,-0.918711,0.412830,-2.748419,-0.518479,0.435004,-2.680132,-0.728046,-0.401203,-0.555864,0.254582,0.092899,0.015443,-30.415665,11.038452,13.940979,,,,,,
1484020761.443540,-0.886342,0.451888,-2.797786,-0.550903,0.800290,-3.073313,-0.696997,-0.436665,-0.568788,0.113409,0.105625,0.064698,-30.415665,11.038452,13.940979,,,,,,
1484020761.463529,-0.837272,0.488716,-2.852702,-0.784797,1.494471,-2.891212,-0.655862,-0.469493,-0.591119,0.077569,0.066462,0.124276,-28.475510,9.233032,12.302979,,,,,,
1484020761.483549,-0.773102,0.512466,-2.910719,-1.161871,1.848558,-2.508753,-0.608646,-0.490328,-0.623801,0.066532,0.148470,0.003653,-25.938690,6.751953,10.744141,,,,,,
1484020761.503538,-0.713351,0.526202,-2.973214,-1.390198,1.126806,-2.507289,-0.565848,-0.502253,-0.653879,0.076148,0.227946,-0.136587,-20.252502,4.486023,5.814026,,,,,,
1484020761.523527,-0.662333,0.538202,-3.039504,-1.320667,0.868529,-2.654051,-0.528022,-0.512593,-0.677082,0.113838,0.144078,0.027485,-18.303574,4.406067,4.467346,,,,,,
1484020761.543547,-0.597824,0.549592,-3.109168,-1.245296,1.716501,-2.822948,-0.479960,-0.522339,-0.704841,0.103281,0.098251,0.038200,-18.303574,4.406067,4.467346,,,,,,
1484020761.563536,-0.525642,0.566942,3.104637,-0.513888,1.702931,-3.035059,-0.423266,-0.537055,-0.729670,0.011782,0.032614,0.094080,-16.204086,4.475342,2.745117,,,,,,
1484020761.583555,-0.462373,0.595092,3.042554,0.274580,1.451672,-2.843879,-0.369392,-0.560585,-0.741144,-0.020180,-0.006676,0.253503,-13.506439,4.168823,1.100708,,,,,,
1484020761.603544,-0.395008,0.625243,2.994074,0.669055,2.371687,-2.178745,-0.312017,-0.585294,-0.748382,-0.064433,0.034620,0.300049,-10.060852,3.411804,-0.165344,,,,,,
1484020761.623564,-0.324089,0.654678,2.959488,1.018247,2.385886,-1.632906,-0.252605,-0.608904,-0.751949,-0.102528,0.078890,0.006358,-4.380600,-0.423523,-1.337708,,,,,,
1484020761.643553,-0.272644,0.686508,2.935316,1.473126,1.599713,-1.299031,-0.208277,-0.633840,-0.744894,-0.150350,0.103521,0.013479,-4.380600,-0.423523,-1.337708,,,,,,
1484020761.663572,-0.237305,0.725150,2.920681,1.823875,1.151172,-0.854770,-0.175937,-0.663248,-0.727426,-0.138333,0.084497,0.018030,-1.992249,-2.752075,-1.322449,,,,,,
1484020761.683561,-0.221844,0.759253,2.917245,1.448629,0.318271,-0.321090,-0.159598,-0.688380,-0.707574,-0.059335,0.063563,-0.223715,0.321671,-4.931091,-1.683105,,,,,,
1484020761.703581,-0.220452,0.783235,2.918105,1.058919,0.053656,-0.262163,-0.154957,-0.705576,-0.691485,0.115941,0.083566,-0.205137,1.962601,-6.807617,-1.071228,,,,,,
1484020761.723570,-0.207824,0.803838,2.908168,0.866180,0.503629,-0.757187,-0.143183,-0.720025,-0.679016,0.202021,0.067147,-0.130463,3.076004,-9.134155,-0.982910,,,,,,
1484020761.743589,-0.174993,0.821994,2.885904,0.693912,0.958821,-0.978108,-0.118521,-0.732505,-0.670365,0.073996,0.052634,-0.126510,3.076004,-9.134155,-0.982910,,,,,,
1484020761.763578,-0.143911,0.839248,2.864553,0.797602,0.543363,-0.750445,-0.095805,-0.744141,-0.661117,0.059931,-0.005294,-0.143143,5.243759,-10.562805,-1.197571,,,,,,
1484020761.783598,-0.122394,0.860472,2.848671,1.135724,0.640682,-0.628111,-0.079611,-0.758151,-0.647201,0.183875,-0.068799,0.096649,6.291977,-10.938965,-0.969055,,,,,,
1484020761.803587,-0.092192,0.890809,2.839406,1.779530,1.144919,-0.280987,-0.057886,-0.777581,-0.626113,-0.077642,-0.094749,0.061110,6.964020,-11.539856,-0.890076,,,,,,
1484020761.823606,-0.131130,0.947447,2.874319,3.184532,-0.583296,1.377862,-0.076329,-0.811928,-0.578746,-0.405223,-0.272820,0.145336,8.445953,-15.289978,0.480957,,,,,,
1484020761.843595,-0.217470,0.996918,2.961500,2.664656,-0.859331,2.185315,-0.117134,-0.839802,-0.530106,-0.034141,-0.140835,-0.158111,8.445953,-15.289978,0.480957,,,,,,
1484020761.863615,-0.328775,1.033064,3.072031,2.553086,-0.879669,2.446580,-0.165378,-0.858872,-0.484756,-0.087674,-0.149245,0.073852,8.133423,-17.912903,1.618591,,,,,,
1484020761.883604,-0.468556,1.060221,-3.080418,2.391921,-1.743093,2.451182,-0.220687,-0.872464,-0.436010,-0.044603,-0.174961,-0.231043,6.850464,-19.633972,2.900208,,,,,,
1484020761.903623,-0.622806,1.068825,-2.951662,1.767102,-2.097886,2.521299,-0.280665,-0.876636,-0.390815,0.005381,-0.395413,-0.224114,5.117645,-21.354065,4.481262,,,,,,
1484020761.923612,-0.757665,1.060349,-2.836819,1.302735,-1.381991,2.319546,-0.335757,-0.872526,-0.354916,0.073718,-0.307650,-0.243579,4.292007,-21.650208,6.206543,,,,,,
1484020761.943601,-0.852789,1.043833,-2.747737,0.796212,-0.688647,2.002779,-0.378752,-0.864338,-0.330858,-0.000979,0.098133,-0.074888,4.292007,-21.650208,6.206543,,,,,,
1484020761.963621,-0.910955,1.022740,-2.700012,-0.010101,-1.131300,1.274666,-0.411659,-0.853539,-0.319386,-0.535484,0.192879,0.068471,-1.697800,-19.837830,8.438477,,,,,,
1484020761.983610,-0.947630,1.015587,-2.688767,0.198899,-1.289505,-0.093205,-0.428041,-0.849790,-0.307633,-0.810179,0.060087,-0.101806,-2.891830,-18.710083,9.106018,,,,,,
1484020762.003630,-0.967578,1.046247,-2.686091,1.471011,-0.617338,-1.942623,-0.412435,-0.865550,-0.284115,-0.863230,0.149775,-0.223865,-4.237213,-17.807800,9.324463,,,,,,
1484020762.023619,-0.972857,1.125037,-2.680674,2.765449,0.420361,-3.947218,-0.356339,-0.902283,-0.242708,-0.825042,0.290177,-0.273497,-3.939484,-18.332153,10.002502,,,,,,
1484020762.043638,-0.928710,1.247028,-2.700940,3.497944,1.718535,-5.940882,-0.254783,-0.948043,-0.190525,-0.714440,0.360519,-0.270047,-3.939484,-18.332153,10.002502,,,,,,
1484020762.063627,-0.761635,1.400027,-2.827777,4.162033,2.416598,-7.136431,-0.117277,-0.985454,-0.122987,-0.521807,0.467876,-0.190062,4.068451,-22.015076,12.732971,,,,,,
1484020762.083647,0.782460,1.521663,1.959279,4.730667,2.716025,-7.543016,0.034627,-0.998793,-0.034831,-0.230290,0.521147,-0.005987,10.214905,-23.069214,16.122437,,,,,,
1484020762.103636,1.925264,1.380520,0.862541,4.781103,2.271049,-6.915142,0.177372,-0.981952,0.065646,0.079143,0.541339,0.171827,16.224075,-21.720886,20.999756,,,,,,
1484020762.123655,2.085761,1.252877,0.707766,4.290991,-0.858086,-3.031009,0.272051,-0.949888,0.153952,0.867567,0.651350,0.073389,21.341965,-18.646057,26.017029,,,,,,
1484020762.143644,2.260763,1.244494,0.464437,2.614958,-3.513245,4.953012,0.247224,-0.947234,0.204029,2.474029,0.342208,0.825466,21.341965,-18.646057,26.017029,,,,,,
1484020762.163664,2.694387,1.351811,-0.052623,-1.325390,-2.953147,10.355778,0.093944,-0.976118,0.195875,2.861866,0.627776,1.510729,22.929352,-16.542847,29.758911,,,,,,
1484020762.183653,-2.383664,1.381891,-1.321916,-3.745509,-1.584445,12.295340,-0.129086,-0.982210,0.136380,2.279385,1.208544,1.234393,16.903656,-21.412842,27.074219,,,,,,
1484020762.203672,-1.714513,1.193261,-2.015856,-4.578948,0.830893,12.217158,-0.364830,-0.929576,0.052796,1.736641,1.284618,0.691818,7.287537,-24.328003,23.999390,,,,,,
1484020762.223661,-1.506658,0.954006,-2.207909,-3.489062,2.164191,12.250574,-0.577230,-0.815739,-0.037074,1.177343,1.044743,-0.266378,-2.904526,-22.442200,21.049683,,,,,,
1484020762.243681,-1.467151,0.687972,-2.226088,-0.727167,0.225840,14.037689,-0.768389,-0.634972,-0.079926,0.350085,0.954949,-1.114303,-2.904526,-22.442200,21.049683,,,,,,
1484020762.263670,-1.536898,0.403233,-2.188950,0.939964,-4.128005,14.013867,-0.919269,-0.392394,-0.031174,-1.456616,1.406631,-0.786438,-14.121399,-15.751282,20.399414,,,,,,
1484020762.283689,-1.647045,0.172063,-2.181379,0.122591,-5.302772,9.517577,-0.982371,-0.171215,0.075050,-2.786351,1.619732,0.217751,-40.067642,13.854736,31.837463,,,,,,
1484020762.303678,-1.702911,0.102457,-2.191395,-0.070799,-1.140707,-0.511923,-0.986087,-0.102278,0.131040,-3.283429,1.872176,1.228442,-50.105164,30.458130,40.739380,,,,,,
1484020762.323698,-1.685609,0.219406,-2.169120,0.628745,1.851946,-8.446691,-0.969601,-0.217649,0.111815,-2.733493,1.751661,0.729936,-51.445023,32.263550,42.978333,,,,,,
1484020762.343687,-1.659862,0.430842,-2.131097,0.646867,1.762985,-11.777488,-0.905013,-0.417636,0.080819,-1.755830,1.176090,0.044837,-51.445023,32.263550,42.978333,,,,,,
1484020762.363676,-1.651828,0.685723,-2.091250,0.813523,1.396642,-13.456295,-0.771422,-0.633232,0.062647,-0.777940,0.868126,-0.651407,-44.307129,20.320618,38.173767,,,,,,
1484020762.383695,-1.693099,0.963375,-1.986873,3.172309,2.263425,-14.625767,-0.566489,-0.821122,0.069631,-0.016702,0.984300,-1.041982,-21.811462,-9.503723,27.781616,,,,,,
1484020762.403669,-1.996850,1.230631,-1.571346,6.994932,4.589726,-15.564043,-0.303817,-0.942699,0.137888,0.498305,1.404064,-0.882899,-7.013153,-19.653748,25.904541,,,,,,
1484020762.423689,-3.051654,1.268008,-0.337460,10.672171,7.668092,-16.097815,-0.026782,-0.954509,0.296977,0.843127,1.808177,-0.349575,6.924469,-22.592712,30.515198,,,,,,
1484020762.443678,2.816717,0.977720,0.322646,12.466643,10.537699,-15.383093,0.178400,-0.829225,0.529678,0.938787,2.048662,0.496811,6.924469,-22.592712,30.515198,,,,,,
1484020762.463698,2.860287,0.657357,0.604653,11.878480,13.788467,-13.214757,0.219759,-0.611027,0.760495,0.927397,2.144779,1.248218,17.470917,-14.564575,43.165833,,,,,,
1484020762.483687,3.029246,0.418062,0.793894,8.362231,12.022650,-8.394254,0.102455,-0.405990,0.908116,0.368935,2.527969,1.375896,19.009796,6.385376,61.363342,,,,,,
1484020762.503706,3.118937,0.356762,0.905170,-1.306610,2.644796,-3.848683,0.021227,-0.349242,0.936792,-1.446596,2.927626,1.721731,-0.148239,56.562439,93.558777,,,,,,
1484020762.523695,3.059221,0.499321,0.926411,-9.626909,-5.044707,1.467611,0.072233,-0.478829,0.874931,-0.724928,2.425668,0.846931,-2.772980,56.567017,94.004822,,,,,,
1484020762.543715,2.971869,0.735877,0.851967,-12.164914,-6.992767,5.987222,0.125203,-0.671237,0.730592,0.075465,2.234439,0.173888,-2.772980,56.567017,94.004822,,,,,,
1484020762.563704,2.951006,1.025852,0.703297,-14.165728,-6.646928,7.897834,0.098198,-0.855156,0.508984,-0.016731,2.240669,-0.124966,3.738205,39.521484,86.824829,,,,,,
1484020762.583723,-3.063066,1.341624,0.276453,-15.327120,-6.740703,9.830550,-0.017821,-0.973855,0.226472,0.186018,2.125191,-0.693986,9.845398,17.218567,74.270508,,,,,,
1484020762.603712,-1.394554,1.304648,-1.576252,-14.430440,-8.669283,15.368730,-0.258943,-0.964791,-0.046115,0.726442,1.367623,-1.481854,11.069794,-19.583069,41.081360,,,,,,
1484020762.623732,-1.315099,0.855385,-1.882869,-9.763402,-10.773817,22.865498,-0.634601,-0.754824,-0.165897,0.969288,1.159563,-1.881161,-1.254593,-23.109741,27.580505,,,,,,
1484020762.643721,-1.505684,0.346125,-1.917234,-3.116119,-9.854676,24.962845,-0.938701,-0.339255,-0.061208,0.238063,2.353827,-1.133815,-1.254593,-23.109741,27.580505,,,,,,
1484020762.663740,-1.615402,-0.040252,-1.941947,-0.654541,-2.471164,14.183560,-0.998196,0.040241,0.044555,-2.314746,2.957226,0.435456,-24.422043,-6.723206,28.813782,,,,,,
1484020762.683729,-1.545082,-0.101814,-1.928305,2.248692,6.534696,-2.695565,-0.994493,0.101639,-0.025578,-3.201385,2.814118,0.120961,-47.351913,25.882446,43.016357,,,,,,
1484020762.703749,-1.387487,0.031063,-1.845027,5.963294,7.414024,-6.761384,-0.982772,-0.031058,-0.182196,-2.188142,2.034614,-0.404992,-51.886978,34.135193,40.343323,,,,,,
1484020762.723738,-1.302665,0.163264,-1.776031,3.288951,2.653943,-4.692122,-0.951445,-0.162540,-0.261407,-1.825594,1.651386,0.157678,-44.753082,21.515564,34.342102,,,,,,
1484020762.743757,-1.293786,0.205529,-1.803156,-2.865074,-1.118955,-1.055640,-0.941633,-0.204085,-0.267725,-1.373736,0.896529,0.630991,-44.753082,21.515564,34.342102,,,,,,
1484020762.763746,-1.325007,0.172282,-1.887952,-4.922059,-2.850390,1.176768,-0.955586,-0.171431,-0.239720,-1.072886,0.962554,0.235127,-42.010422,15.208984,32.727783,,,,,,
1484020762.783766,-1.366729,0.133965,-1.982578,-5.008808,-2.541261,0.184752,-0.970476,-0.133564,-0.200839,-1.281172,0.979634,0.124468,-42.306198,16.182556,31.447449,,,,,,
1484020762.803755,-1.379679,0.153850,-2.084546,-4.597565,-0.567060,-3.394161,-0.970196,-0.153244,-0.187712,-1.218677,1.092712,0.253401,-45.132187,20.912842,32.169617,,,,,,
1484020762.823744,-1.346760,0.245667,-2.193616,-4.134367,1.223751,-6.777438,-0.945734,-0.243204,-0.215496,-0.777456,0.996499,0.118756,-42.738480,20.004028,28.652649,,,,,,
1484020762.843763,-1.272871,0.383931,-2.311757,-3.330926,2.161618,-8.785314,-0.886354,-0.374568,-0.272168,-0.246108,0.879130,-0.110232,-42.738480,20.004028,28.652649,,,,,,
1484020762.863752,-1.170835,0.542683,-2.438553,-2.191942,2.291399,-9.737309,-0.788742,-0.516435,-0.333439,0.144149,0.768282,-0.243908,-37.752441,12.787903,22.921265,,,,,,
1484020762.883772,-1.048619,0.707175,-2.580919,-1.162752,1.523517,-9.948152,-0.658892,-0.649689,-0.379164,0.377429,0.645737,-0.316804,-29.319855,4.891418,17.048340,,,,,,
1484020762.903761,-0.943104,0.849029,-2.744526,-1.029342,-2.045904,-8.382625,-0.534771,-0.750639,-0.388022,0.736477,0.586180,-0.418313,-20.208557,-2.403931,12.598511,,,,,,
1484020762.923781,-0.896662,0.928556,-2.896576,-1.518531,-3.868274,-4.436910,-0.467960,-0.800756,-0.373903,1.580875,0.529714,-0.199385,-9.809982,-7.448120,10.164368,,,,,,
1484020762.943770,-0.901076,0.940137,-2.973190,-1.341379,-2.955317,-0.651459,-0.462305,-0.807639,-0.366052,1.836923,0.278342,-0.181235,-9.809982,-7.448120,10.164368,,,,,,
1484020762.963789,-0.936180,0.917994,-3.000940,-1.307892,-2.895964,0.840010,-0.489151,-0.794385,-0.360117,1.549362,0.063290,-0.239919,-9.874786,-5.422852,10.304077,,,,,,
1484020762.983778,-0.987247,0.884302,-3.004435,-0.849192,-2.470150,1.568418,-0.528938,-0.773473,-0.349233,1.624046,-0.008250,-0.293299,-11.364136,-3.320129,10.591370,,,,,,
1484020763.003798,-1.040474,0.842792,-2.984171,-0.386517,-1.516917,2.529818,-0.573987,-0.746504,-0.336557,1.697889,-0.080507,-0.250067,-13.748672,-0.315247,11.472778,,,,,,
1484020763.023787,-1.088226,0.780304,-2.943604,-0.314024,-0.659956,4.007610,-0.629541,-0.703496,-0.329805,1.517664,-0.027461,-0.112623,-16.811462,2.015991,12.581482,,,,,,
1484020763.043806,-1.134734,0.683194,-2.897510,-0.840769,-1.001807,5.841977,-0.702985,-0.631274,-0.327576,1.149762,-0.124128,-0.115066,-16.811462,2.015991,12.581482,,,,,,
1484020763.063795,-1.189171,0.548977,-2.853998,-1.062972,-1.744137,7.406286,-0.791690,-0.521815,-0.317704,0.774051,-0.046727,-0.288283,-24.204971,8.031311,15.390381,,,,,,
1484020763.083815,-1.247258,0.401176,-2.812439,-0.639365,-1.945407,7.495498,-0.872838,-0.390502,-0.292681,0.350209,0.091323,-0.328199,-30.245239,14.719177,17.972839,,,,,,
1484020763.103804,-1.289193,0.270783,-2.777238,-0.187294,-1.222518,6.156089,-0.925608,-0.267486,-0.267770,-0.034994,0.156875,-0.237723,-36.500732,23.209717,22.046021,,,,,,
1484020763.123823,-1.308590,0.175013,-2.748933,0.188339,-0.354398,4.342034,-0.951067,-0.174121,-0.255252,-0.206511,0.166354,-0.235135,-42.834152,31.100647,26.347046,,,,,,
1484020763.143812,-1.313652,0.107190,-2.722447,0.509647,0.024126,3.340666,-0.961570,-0.106985,-0.252860,-0.210656,0.150274,-0.256647,-42.834152,31.100647,26.347046,,,,,,
1484020763.163832,-1.319816,0.049308,-2.692657,0.765569,-0.313133,3.122959,-0.967492,-0.049288,-0.248052,-0.178290,0.159716,-0.213115,-49.079391,41.542725,31.460449,,,,,,
1484020763.183821,-1.323676,-0.003945,-2.671332,0.048883,0.019730,2.627989,-0.969613,0.003945,-0.244610,-0.108130,0.177238,-0.001773,-51.386627,44.849915,33.915466,,,,,,
1484020763.203840,-1.316749,-0.047292,-2.669550,-0.660532,0.501569,1.835617,-0.966821,0.047274,-0.251043,-0.129309,0.199232,0.036077,-54.294800,48.007324,35.995300,,,,,,
1484020763.223829,-1.308823,-0.076582,-2.663883,0.687802,0.088080,1.402331,-0.963050,0.076507,-0.258228,-0.137399,0.244690,-0.057720,-56.155746,50.637756,37.779358,,,,,,
1484020763.243818,-1.306390,-0.098262,-2.639317,0.717085,0.334675,1.351145,-0.960592,0.098104,-0.260075,-0.167994,0.104410,-0.156886,-56.155746,50.637756,37.779358,,,,,,
1484020763.263838,-1.294605,-0.116660,-2.629595,0.000134,0.599693,0.754683,-0.955562,0.116396,-0.270840,-0.248845,0.172529,-0.038669,-58.168961,52.818542,39.565430,,,,,,
1484020763.283827,-1.280686,-0.122301,-2.631339,-0.219761,0.810882,-0.061493,-0.951055,0.121996,-0.283921,-0.226908,0.226118,-0.046645,-59.141281,53.271240,40.386719,,,,,,
1484020763.303846,-1.264430,-0.116431,-2.638197,-0.246462,0.853548,-0.509037,-0.946981,0.116168,-0.299554,-0.188441,0.164563,-0.080481,-59.368820,52.746765,40.539062,,,,,,
1484020763.323835,-1.239317,-0.110750,-2.649620,-0.869339,2.509288,-0.300285,-0.939769,0.110524,-0.323448,-0.948705,-0.107945,-0.104454,-59.375870,51.395874,39.945740,,,,,,
1484020763.343855,-1.221939,-0.097723,-2.679589,-0.855017,-0.127483,-1.487552,-0.935280,0.097568,-0.340194,-0.734703,0.263257,-0.426789,-59.375870,51.395874,39.945740,,,,,,
1484020763.363844,-1.232684,-0.071886,-2.689023,0.436640,-0.395706,-1.161383,-0.940946,0.071824,-0.330850,0.120786,0.240096,-0.004370,-58.036819,49.440430,37.632568,,,,,,
1484020763.383864,-1.227750,-0.053253,-2.687108,0.268701,0.531342,-0.776333,-0.940399,0.053228,-0.335881,0.208145,-0.167074,0.058201,-55.360260,44.859802,36.534485,,,,,,
1484020763.403849,-1.211512,-0.038585,-2.690467,0.080402,0.869332,-0.701364,-0.935452,0.038576,-0.351343,0.142025,0.029280,0.027917,-54.393188,43.283203,36.468811,,,,,,
1484020763.423868,-1.198481,-0.030300,-2.690881,0.119836,0.511408,-0.173870,-0.931060,0.030296,-0.363606,0.105208,-0.007133,-0.070567,-53.427307,41.629211,34.753479,,,,,,
1484020763.443857,-1.190921,-0.032054,-2.688680,0.052884,0.290631,0.281104,-0.928234,0.032048,-0.370614,0.110454,-0.015584,-0.047583,-53.427307,41.629211,34.753479,,,,,,
1484020763.463877,-1.184141,-0.040241,-2.684980,-0.021328,0.411809,0.544864,-0.925426,0.040230,-0.376787,0.122829,0.049934,0.009188,-52.456329,40.876953,34.233704,,,,,,
1484020763.483866,-1.177111,-0.053475,-2.681553,-0.131752,0.270544,0.719211,-0.922182,0.053449,-0.383046,0.111406,0.110446,-0.004817,-52.679001,41.327515,34.381104,,,,,,
1484020763.503885,-1.172539,-0.067670,-2.679672,-0.210253,0.234882,0.661863,-0.919629,0.067618,-0.386925,0.079571,0.009668,0.013848,-53.201416,41.853210,34.302734,,,,,,
1484020763.523874,-1.166860,-0.081076,-2.679538,-0.300813,0.233059,0.630697,-0.916500,0.080987,-0.391750,-0.005237,-0.004876,0.006496,-53.345825,42.978271,34.221863,,,,,,
1484020763.543894,-1.167720,-0.096532,-2.682413,-0.524636,-0.079937,0.623546,-0.915576,0.096382,-0.390424,-0.082684,0.136910,0.013044,-53.345825,42.978271,34.221863,,,,,,
1484020763.563883,-1.165034,-0.106539,-2.689811,-0.439064,0.255739,0.081773,-0.913592,0.106337,-0.392482,-0.094510,0.157213,-0.008168,-53.492599,43.653076,33.918274,,,,,,
1484020763.583902,-1.161001,-0.105291,-2.696576,-0.234801,0.184623,-0.276140,-0.912123,0.105096,-0.396215,-0.078310,0.043570,-0.042353,-53.859985,45.080017,34.885620,,,,,,
1484020763.603891,-1.162899,-0.101251,-2.703252,-0.255765,-0.130789,-0.341341,-0.913256,0.101078,-0.394648,-0.016661,0.030041,0.026850,-53.416153,43.952820,33.841919,,,,,,
1484020763.623911,-1.165870,-0.096909,-2.711938,-0.340099,-0.103882,-0.384603,-0.914819,0.096757,-0.392102,0.014337,0.062514,0.034818,-52.965576,44.101562,33.466919,,,,,,
1484020763.643900,-1.169968,-0.093028,-2.721830,-0.396246,-0.159582,-0.377625,-0.916757,0.092894,-0.388494,0.028955,0.056505,0.059667,-52.965576,44.101562,33.466919,,,,,,
1484020763.663889,-1.173369,-0.089217,-2.732388,-0.437302,-0.095201,-0.360465,-0.918393,0.089098,-0.385508,-0.017322,0.013471,0.050395,-52.598129,42.600952,33.399963,,,,,,
1484020763.683908,-1.175587,-0.086838,-2.743662,-0.445725,-0.139938,-0.286307,-0.919438,0.086729,-0.383551,-0.042232,-0.024015,-0.082483,-52.222107,42.824951,33.174377,,,,,,
1484020763.703897,-1.185234,-0.086071,-2.750462,-0.198631,-0.621026,-0.055228,-0.923157,0.085964,-0.374689,0.002182,-0.050000,-0.125388,-51.776962,41.923340,32.504517,,,,,,
1484020763.723917,-1.201622,-0.087923,-2.749288,0.165844,-0.963082,0.176473,-0.929023,0.087810,-0.359452,-0.038705,-0.161113,-0.112502,-51.702560,41.773682,32.805420,,,,,,
1484020763.743906,-1.223007,-0.086588,-2.742666,0.353934,-1.058870,-0.063833,-0.936606,0.086480,-0.339544,0.069358,-0.087441,0.028234,-51.702560,41.773682,32.805420,,,,,,
1484020763.763925,-1.234162,-0.083217,-2.743040,-0.189347,-0.233339,-0.184073,-0.940606,0.083121,-0.329169,0.104042,0.024209,0.125372,-51.999619,42.226135,34.152649,,,,,,
1484020763.783914,-1.236262,-0.085520,-2.753121,-0.671097,-0.091280,0.051578,-0.941111,0.085416,-0.327130,0.049159,-0.091687,-0.013462,-52.150177,42.003052,35.278564,,,,,,
1484020763.803934,-1.244382,-0.094109,-2.764728,-0.634830,-0.483991,0.297945,-0.943007,0.093970,-0.319230,0.060484,-0.081366,-0.069930,-51.549545,42.151794,35.053711,,,,,,
1484020763.823923,-1.253996,-0.103373,-2.770844,-0.300545,-0.422747,0.365284,-0.945164,0.103189,-0.309865,0.106328,0.024527,-0.071300,-51.923264,42.377808,35.352051,,,,,,
1484020763.843943,-1.259655,-0.111809,-2.770095,-0.004967,-0.169683,0.422500,-0.946041,0.111576,-0.304234,0.122753,0.018429,-0.030224,-51.923264,42.377808,35.352051,,,,,,
1484020763.863932,-1.260039,-0.119293,-2.766456,0.084714,-0.031947,0.415595,-0.945336,0.119011,-0.303606,0.016228,-0.037559,-0.040586,-51.470749,42.827881,35.875427,,,,,,
1484020763.883951,-1.264372,-0.125038,-2.759577,0.390739,-0.283995,0.355822,-0.945975,0.124712,-0.299296,-0.036020,-0.029452,-0.074834,-52.743683,43.205383,36.246643,,,,,,
1484020763.903940,-1.267940,-0.127233,-2.751520,0.364942,-0.173618,0.152697,-0.946773,0.126890,-0.295837,0.021373,0.013887,-0.038376,-52.591324,43.655518,36.469666,,,,,,
1484020763.923960,-1.268017,-0.126729,-2.743842,0.362916,-0.015394,0.086595,-0.946857,0.126390,-0.295783,0.012424,0.009093,-0.029886,-52.740372,43.732422,37.594055,,,,,,
1484020763.943949,-1.267637,-0.127426,-2.737594,0.255798,0.022893,0.143376,-0.946660,0.127081,-0.296117,0.007222,0.027826,-0.028621,-52.740372,43.732422,37.594055,,,,,,
1484020763.963968,-1.265608,-0.130221,-2.733428,0.093442,0.013950,0.239023,-0.945715,0.129853,-0.297928,0.001867,0.031127,0.024979,-53.266266,43.508850,38.044373,,,,,,
1484020763.983957,-1.266798,-0.135303,-2.730408,0.047321,-0.119204,0.292922,-0.945427,0.134890,-0.296602,0.008324,-0.009219,0.001131,-53.189102,43.958496,37.892212,,,,,,
1484020764.003977,-1.268060,-0.139599,-2.728192,0.042758,-0.040596,0.200138,-0.945238,0.139146,-0.295233,0.049822,-0.046586,0.014594,-53.487625,44.258850,37.815247,,,,,,
1484020764.023966,-1.267666,-0.143007,-2.725941,0.045170,0.067708,0.198707,-0.944664,0.142520,-0.295462,0.038673,-0.012332,-0.012674,-53.861832,44.335693,38.639343,,,,,,
1484020764.043985,-1.262363,-0.144342,-2.723062,0.261511,0.219616,-0.114119,-0.942902,0.143841,-0.300409,-0.136779,0.134876,-0.035284,-53.861832,44.335693,38.639343,,,,,,
1484020764.063974,-1.257264,-0.141783,-2.718871,0.217787,0.193697,-0.054172,-0.941705,0.141309,-0.305326,-0.023490,0.052844,-0.027544,-53.860138,44.636230,39.012817,,,,,,
1484020764.083994,-1.254542,-0.139372,-2.715262,0.207175,0.201053,-0.089484,-0.941191,0.138921,-0.307994,0.017073,0.002619,0.020152,-53.488068,44.109802,38.416077,,,,,,
1484020764.103983,-1.244275,-0.136452,-2.714994,-0.015271,0.744830,-0.156002,-0.938360,0.136028,-0.317769,0.048238,0.064762,0.055684,-53.565704,43.658752,37.668213,,,,,,
1484020764.123972,-1.226894,-0.134683,-2.716214,0.003802,0.879754,-0.088404,-0.932920,0.134277,-0.334111,0.007826,0.028611,0.012760,-53.194016,43.057251,37.071716,,,,,,
1484020764.143991,-1.212687,-0.134006,-2.715794,0.022891,0.570921,-0.009588,-0.928165,0.133605,-0.347361,-0.037534,-0.061339,-0.011510,-53.194016,43.057251,37.071716,,,,,,
1484020764.163980,-1.202331,-0.129428,-2.715846,0.030148,0.483993,-0.073531,-0.925079,0.129067,-0.357171,0.027892,-0.061363,0.014490,-52.520859,42.755249,36.399231,,,,,,
1484020764.184000,-1.194972,-0.127487,-2.714280,0.153079,0.299283,-0.066461,-0.922656,0.127141,-0.364061,0.011722,0.063014,0.000414,-52.672012,42.604248,35.574768,,,,,,
1484020764.203989,-1.190255,-0.128050,-2.710021,0.332773,0.210570,-0.023113,-0.920862,0.127700,-0.368382,0.012537,0.037919,0.016819,-52.223862,42.302490,34.901917,,,,,,
1484020764.224008,-1.186072,-0.125073,-2.702853,0.405754,0.148572,-0.021014,-0.919661,0.124748,-0.372372,0.018462,-0.030769,-0.009678,-52.525406,42.002930,34.827942,,,,,,
1484020764.243998,-1.181721,-0.120569,-2.694852,0.494257,0.171684,-0.066931,-0.918543,0.120277,-0.376579,0.043741,-0.053214,0.007332,-52.525406,42.002930,34.827942,,,,,,
1484020764.264017,-1.180098,-0.114901,-2.684246,0.652924,-0.075322,-0.086663,-0.918546,0.114648,-0.378323,0.001371,-0.031518,-0.009540,-51.853653,41.327271,35.057373,,,,,,
1484020764.284006,-1.181317,-0.106454,-2.673934,0.557637,-0.099335,-0.265804,-0.919870,0.106253,-0.377558,0.072900,0.001703,-0.034353,-51.857101,40.652039,34.910767,,,,,,
1484020764.304026,-1.179220,-0.098483,-2.669436,0.271336,0.253800,-0.271312,-0.919830,0.098324,-0.379797,0.016708,0.059086,-0.008722,-51.335220,39.977051,35.439941,,,,,,
1484020764.324015,-1.174793,-0.092044,-2.665414,0.359815,0.079326,-0.183415,-0.918704,0.091914,-0.384102,-0.020901,0.027135,-0.020775,-51.637802,39.452637,35.517029,,,,,,
1484020764.344034,-1.176348,-0.085636,-2.658349,0.495587,-0.255996,-0.180708,-0.919825,0.085532,-0.382891,0.007029,0.046350,-0.003630,-51.637802,39.452637,35.517029,,,,,,
1484020764.364023,-1.178260,-0.078344,-2.652652,0.352587,-0.067141,-0.263619,-0.921108,0.078264,-0.381359,0.045452,0.034682,0.022030,-51.118546,38.326538,35.298462,,,,,,
1484020764.384043,-1.176799,-0.071621,-2.648577,0.372293,-0.088029,-0.391250,-0.921015,0.071560,-0.382898,0.053782,0.011951,-0.006979,-50.447220,37.575745,35.453247,,,,,,
1484020764.404010,-1.177110,-0.058793,-2.644138,0.511129,-0.030360,-0.587871,-0.921906,0.058759,-0.382932,0.077881,-0.029065,0.029478,-50.451569,36.676208,35.757751,,,,,,
1484020764.424029,-1.174955,-0.041537,-2.640188,0.470566,0.198777,-0.780883,-0.921877,0.041525,-0.385252,0.088152,-0.033667,0.035719,-50.305511,35.851562,36.137085,,,,,,
1484020764.444018,-1.172258,-0.025516,-2.638127,0.363439,0.049062,-0.618150,-0.921329,0.025513,-0.387945,-0.056088,0.006454,-0.053675,-50.305511,35.851562,36.137085,,,,,,
1484020764.464038,-1.174247,-0.013224,-2.634246,0.485770,-0.248298,-0.492260,-0.922319,0.013223,-0.386204,-0.015105,0.024725,-0.030788,-48.971939,32.697571,34.804810,,,,,,
1484020764.484027,-1.180781,0.001517,-2.629215,0.514391,-0.407016,-0.758843,-0.924902,-0.001517,-0.380202,0.114432,0.094733,-0.030229,-48.529099,31.271790,34.737671,,,,,,
1484020764.504046,-1.182226,0.008607,-2.628033,0.044721,0.076520,-0.049858,-0.925417,-0.008607,-0.378852,-0.710371,-0.279449,0.007987,-48.458633,30.297668,35.417603,,,,,,
1484020764.524035,-1.176952,0.008630,-2.628101,-0.001831,0.297943,-0.006001,-0.923406,-0.008630,-0.383727,0.029211,-0.001700,0.054702,-48.010620,29.921631,35.195129,,,,,,
1484020764.544024,-1.170366,0.009076,-2.628129,0.001112,0.036868,0.001722,-0.920855,-0.009075,-0.389798,0.013904,-0.005558,-0.084536,-48.010620,29.921631,35.195129,,,,,,
1484020764.564044,-1.171382,0.009081,-2.628064,0.001837,-0.061853,0.000902,-0.921251,-0.009081,-0.388863,0.014101,-0.004607,-0.015785,-48.010071,30.071106,34.819397,,,,,,
1484020764.584033,-1.172042,0.009137,-2.628030,0.001665,0.109045,-0.001365,-0.921507,-0.009137,-0.388255,0.004805,0.000393,0.052119,-47.936035,29.846497,35.120667,,,,,,
1484020764.604052,-1.168813,0.009184,-2.627971,0.002034,0.057026,0.002527,-0.920248,-0.009183,-0.391228,0.032385,-0.001666,-0.138084,-48.235947,29.847168,35.270203,,,,,,
1484020764.624041,-1.168694,0.009147,-2.627868,0.005417,0.032627,0.001797,-0.920202,-0.009147,-0.391338,0.016668,-0.002191,-0.009648,-47.486649,29.770203,34.671692,,,,,,
1484020764.644061,-1.168215,0.009170,-2.627512,0.022541,0.022155,0.008385,-0.920014,-0.009170,-0.391779,0.010605,-0.006181,-0.012091,-47.486649,29.770203,34.671692,,,,,,
1484020764.664050,-1.167276,0.009504,-2.626935,0.022566,0.017914,0.010568,-0.919643,-0.009504,-0.392641,0.010143,-0.002200,0.000230,-47.637253,29.694702,34.221863,,,,,,
1484020764.684069,-1.167251,0.009497,-2.626798,0.001421,-0.003492,0.000125,-0.919633,-0.009497,-0.392664,0.013581,0.001150,-0.000509,-47.935776,29.921143,34.895264,,,,,,
1484020764.704059,-1.166960,0.009470,-2.626770,0.002452,0.000768,0.001138,-0.919519,-0.009470,-0.392932,0.012384,-0.002371,0.001193,-47.862885,29.545410,34.447266,,,,,,
1484020764.724078,-1.166713,0.009459,-2.626581,0.016095,0.028481,0.008275,-0.919422,-0.009459,-0.393159,0.015064,-0.007570,0.004228,-48.012924,29.545471,34.372070,,,,,,
1484020764.744067,-1.165361,0.009943,-2.625760,0.048820,0.070160,0.021673,-0.918885,-0.009943,-0.394399,0.013948,-0.006369,-0.002009,-48.012924,29.545471,34.372070,,,,,,
1484020764.764087,-1.163752,0.009932,-2.624537,0.056195,0.081900,0.023671,-0.918250,-0.009932,-0.395877,0.012702,0.000182,-0.000195,-47.862701,29.619812,34.071838,,,,,,
1484020764.784076,-1.161800,0.010050,-2.623294,0.058237,0.093597,0.025652,-0.917474,-0.010050,-0.397668,0.011102,-0.004416,0.002893,-47.711746,29.770203,34.446350,,,,,,
1484020764.804095,-1.159585,0.010294,-2.622066,0.056043,0.102077,0.025528,-0.916589,-0.010294,-0.399699,0.017159,-0.004141,0.002116,-47.786896,29.769836,34.146240,,,,,,
1484020764.824084,-1.156582,0.010828,-2.620513,0.079172,0.143677,0.037831,-0.915379,-0.010828,-0.402447,0.015477,-0.005026,0.001797,-48.088669,29.395630,34.372681,,,,,,
1484020764.844104,-1.152894,0.011199,-2.618574,0.093830,0.179903,0.041651,-0.913885,-0.011198,-0.405818,0.018103,-0.002824,0.005825,-48.088669,29.395630,34.372681,,,,,,
1484020764.864093,-1.148427,0.011492,-2.616177,0.117951,0.231063,0.054900,-0.912060,-0.011492,-0.409896,0.018322,-0.002470,0.006026,-47.411530,29.844238,34.146423,,,,,,
1484020764.884112,-1.142706,0.011741,-2.613186,0.143046,0.294969,0.067984,-0.909698,-0.011741,-0.415105,0.016173,-0.001168,0.006200,-48.237610,29.620605,34.221313,,,,,,
1484020764.904101,-1.135999,0.011896,-2.609889,0.159796,0.335457,0.074957,-0.906891,-0.011896,-0.421197,0.015747,-0.003195,0.005304,-47.637100,29.769043,33.771484,,,,,,
1484020764.924121,-1.128441,0.012153,-2.605925,0.185094,0.371765,0.087342,-0.903679,-0.012152,-0.428038,0.010826,-0.002588,0.005888,-47.713531,29.543213,33.172546,,,,,,
1484020764.944110,-1.120426,0.012151,-2.601822,0.185848,0.412110,0.093206,-0.900220,-0.012151,-0.435267,0.011456,0.000600,0.006403,-47.713531,29.543213,33.172546,,,,,,
1484020764.964099,-1.110518,0.012387,-2.597282,0.215843,0.533382,0.110875,-0.895860,-0.012386,-0.444163,0.029207,-0.008701,0.010860,-47.637924,29.618774,33.622314,,,,,,
1484020764.984118,-1.099195,0.012521,-2.592070,0.238993,0.570732,0.125374,-0.890772,-0.012521,-0.454277,0.022730,-0.002891,0.001107,-47.862335,29.768738,33.321167,,,,,,
1484020765.004107,-1.086097,0.012515,-2.586416,0.253890,0.716288,0.138415,-0.884746,-0.012514,-0.465906,0.027904,-0.003660,0.015893,-47.637787,29.767029,32.421570,,,,,,
1484020765.024127,-1.069887,0.012482,-2.580576,0.256987,0.874488,0.142723,-0.877078,-0.012482,-0.480186,0.034625,-0.010604,0.009590,-47.487976,29.766296,32.046753,,,,,,
1484020765.044116,-1.049944,0.012433,-2.574861,0.242544,1.099420,0.141829,-0.867328,-0.012433,-0.497582,0.046237,-0.015933,0.019341,-47.487976,29.766296,32.046753,,,,,,
1484020765.064135,-1.024498,0.012326,-2.569447,0.227752,1.371056,0.143513,-0.854389,-0.012326,-0.519488,0.043155,-0.040988,0.026370,-47.788162,29.766113,31.671326,,,,,,
1484020765.084124,-0.994736,0.012239,-2.564283,0.207146,1.565151,0.138744,-0.838552,-0.012239,-0.544684,0.032629,-0.037154,0.036658,-47.488785,29.763916,30.471741,,,,,,
1484020765.104144,-0.962387,0.012178,-2.559198,0.219201,1.659721,0.156722,-0.820498,-0.012177,-0.571520,0.022448,-0.016921,0.033083,-46.519058,29.007935,27.476990,,,,,,
1484020765.124133,-0.929618,0.012144,-2.552968,0.266332,1.614441,0.201188,-0.801333,-0.012144,-0.598096,0.009905,-0.028689,0.001523,-46.219208,29.080872,26.427063,,,,,,
1484020765.144153,-0.898633,0.012055,-2.546272,0.252969,1.542129,0.209575,-0.782420,-0.012055,-0.622635,0.008570,0.002533,0.013550,-46.219208,29.080872,26.427063,,,,,,
1484020765.164142,-0.868304,0.011995,-2.541650,0.087081,1.525945,0.078124,-0.763179,-0.011995,-0.646076,0.033397,0.027498,-0.003964,-45.772110,28.554443,25.905334,,,,,,
1484020765.184161,-0.833990,0.011931,-2.546341,-0.347579,1.903636,-0.312107,-0.740565,-0.011931,-0.671878,0.094050,0.048705,0.062793,-45.097412,28.626404,24.556091,,,,,,
1484020765.204150,-0.796692,0.012150,-2.554411,0.007091,1.410670,0.000498,-0.714995,-0.012150,-0.699024,-0.250841,-0.112255,-0.142208,-44.427307,27.798157,23.061218,,,,,,
1484020765.224170,-0.782848,0.012073,-2.552580,0.034703,0.391750,0.036502,-0.705250,-0.012073,-0.708856,-0.041164,0.072070,-0.124655,-42.708115,26.891724,20.518311,,,,,,
1484020765.244159,-0.784423,0.012109,-2.552598,-0.008906,-0.333648,-0.013721,-0.706365,-0.012109,-0.707744,-0.007838,0.077813,-0.150303,-42.708115,26.891724,20.518311,,,,,,
1484020765.264178,-0.794857,0.012134,-2.552760,-0.000710,-0.584123,-0.001840,-0.713711,-0.012134,-0.700335,0.028774,0.004474,-0.044645,-42.782242,27.042175,20.742432,,,,,,
1484020765.284167,-0.806923,0.011101,-2.552928,-0.004811,-0.606450,-0.005804,-0.722118,-0.011101,-0.691681,0.008815,0.038216,0.007370,-43.081573,27.192444,20.591187,,,,,,
1484020765.304187,-0.819579,0.011142,-2.552801,0.011544,-0.661525,0.009906,-0.730813,-0.011142,-0.682486,-0.006812,0.038150,0.013816,-42.781158,27.193237,21.416687,,,,,,
1484020765.324176,-0.831476,0.011192,-2.552589,0.007276,-0.514005,0.006869,-0.738880,-0.011191,-0.673744,0.019505,-0.000405,0.042030,-43.603775,27.570923,22.388611,,,,,,
1484020765.344195,-0.842287,0.011228,-2.552421,0.007987,-0.609538,0.002806,-0.746121,-0.011228,-0.665716,0.022152,0.001462,-0.063639,-43.603775,27.570923,22.388611,,,,,,
1484020765.364184,-0.859194,0.011263,-2.552178,0.014192,-1.023509,0.010453,-0.757268,-0.011263,-0.653007,0.028890,-0.003767,-0.136315,-43.601517,28.020874,22.386353,,,,,,
1484020765.384173,-0.883646,0.011268,-2.551008,0.074801,-1.310722,0.063502,-0.773007,-0.011267,-0.634297,0.008863,-0.015878,-0.031108,-44.349991,28.248230,23.209045,,,,,,
1484020765.404194,-0.910339,0.011224,-2.548888,0.070828,-1.346840,0.053305,-0.789662,-0.011223,-0.613439,0.032979,0.033562,-0.008936,-44.649124,28.325195,24.183228,,,,,,
1484020765.424183,-0.938422,0.011226,-2.547707,0.041072,-1.498887,0.031773,-0.806576,-0.011226,-0.591024,0.025738,0.006846,-0.076151,-45.618469,29.303894,25.676880,,,,,,
1484020765.444202,-0.973638,0.011224,-2.545710,0.112174,-1.904897,0.076831,-0.826885,-0.011224,-0.562260,0.002025,-0.003623,-0.046734,-45.618469,29.303894,25.676880,,,,,,
1484020765.464191,-1.012342,0.011242,-2.543159,0.096226,-1.905020,0.059721,-0.848022,-0.011241,-0.529842,0.048614,-0.010563,0.024837,-47.113861,29.984619,28.071167,,,,,,
1484020765.484211,-1.049411,0.011208,-2.541123,0.090663,-1.872156,0.056069,-0.867076,-0.011208,-0.498051,0.010035,0.007744,0.014988,-47.862137,30.212585,29.268921,,,,,,
1484020765.504200,-1.090963,0.011094,-2.537542,0.192700,-2.281088,0.107654,-0.887017,-0.011094,-0.461603,-0.044471,0.063325,-0.003821,-48.832504,30.966675,30.988770,,,,,,
1484020765.524219,-1.142964,0.010864,-2.533319,0.169925,-2.803557,0.083596,-0.909814,-0.010864,-0.414875,0.019799,0.011825,-0.043713,-49.729965,31.197144,33.761169,,,,,,
1484020765.544208,-1.201279,0.010767,-2.530733,0.095203,-2.924127,0.040186,-0.932448,-0.010767,-0.361144,0.059233,-0.006079,0.022872,-49.729965,31.197144,33.761169,,,,,,
1484020765.564228,-1.253187,0.010655,-2.527972,0.163382,-2.339683,0.066753,-0.949931,-0.010655,-0.312279,0.050578,-0.019969,0.191551,-50.922348,32.255859,38.404175,,,,,,
1484020765.584217,-1.285223,0.010644,-2.524199,0.156534,-1.102969,0.044983,-0.959446,-0.010644,-0.281692,0.054859,-0.042823,0.253112,-51.367752,32.935120,40.800049,,,,,,
1484020765.604237,-1.294462,0.010668,-2.522797,0.001886,-0.210414,-0.004640,-0.962007,-0.010668,-0.272816,0.021227,-0.010801,0.102314,-50.690720,33.161865,42.600037,,,,,,
1484020765.624226,-1.299125,0.010714,-2.524620,-0.125939,-0.366491,-0.038132,-0.963268,-0.010714,-0.268327,-0.018803,0.009478,-0.033523,-52.114288,33.389893,43.196655,,,,,,
1484020765.644245,-1.312565,0.010753,-2.527717,-0.160594,-0.729851,-0.045139,-0.966787,-0.010752,-0.255356,0.009085,-0.033315,0.055420,-52.114288,33.389893,43.196655,,,,,,
1484020765.664234,-1.322790,0.010804,-2.531456,-0.186399,-0.408410,-0.049481,-0.969347,-0.010803,-0.245457,0.012850,-0.007950,0.073796,-51.441055,33.014221,43.424500,,,,,,
1484020765.684254,-1.328600,0.010876,-2.535537,-0.209954,-0.248311,-0.054873,-0.970756,-0.010876,-0.239822,0.009285,-0.031712,0.040389,-51.367325,32.714783,43.876160,,,,,,
1484020765.704243,-1.335336,0.010969,-2.540665,-0.267193,-0.438824,-0.066374,-0.972349,-0.010968,-0.233276,0.000211,-0.054293,-0.039597,-51.517838,32.565674,44.326660,,,,,,
1484020765.724262,-1.345945,0.011041,-2.546892,-0.316012,-0.467903,-0.077860,-0.974768,-0.011041,-0.222948,0.041922,-0.080191,-0.003355,-50.618515,32.414551,44.478821,,,,,,
1484020765.744251,-1.341688,0.011216,-2.550682,-0.098531,0.405522,-0.034437,-0.973808,-0.011216,-0.227095,0.030540,0.022523,-0.056566,-50.618515,32.414551,44.478821,,,,,,
1484020765.764271,-1.339675,0.011337,-2.551874,-0.030083,-0.066310,-0.010911,-0.973348,-0.011337,-0.229055,0.008656,0.024628,-0.101588,-50.620316,32.039795,44.630676,,,,,,
1484020765.784260,-1.344615,0.011254,-2.550847,0.113870,-0.369772,0.034060,-0.974468,-0.011254,-0.224243,0.017086,0.020333,-0.112442,-50.321976,31.738892,44.332642,,,,,,
1484020765.804279,-1.355543,0.011162,-2.547201,0.193294,-0.587777,0.046781,-0.976861,-0.011162,-0.213582,0.030176,-0.017174,-0.055766,-50.471588,31.740234,45.082397,,,,,,
1484020765.824268,-1.366796,0.011072,-2.542213,0.266688,-0.564855,0.059486,-0.979204,-0.011072,-0.202576,0.020586,0.012018,-0.039352,-49.495850,31.888733,45.083130,,,,,,
1484020765.844257,-1.379887,0.010915,-2.535792,0.358486,-0.726492,0.076826,-0.981773,-0.010915,-0.189741,0.016792,0.041158,-0.062288,-49.495850,31.888733,45.083130,,,,,,
1484020765.864277,-1.395788,0.010711,-2.527315,0.431582,-0.808670,0.089859,-0.984669,-0.010711,-0.174106,0.018238,0.026382,-0.016461,-50.021164,31.740784,45.908081,,,,,,
1484020765.884266,-1.409922,0.010385,-2.518878,0.396029,-0.610453,0.079660,-0.987034,-0.010384,-0.160173,0.020436,0.022790,0.057298,-50.545212,31.744385,47.782288,,,,,,
1484020765.904285,-1.418525,0.010133,-2.511766,0.324656,-0.324430,0.061793,-0.988378,-0.010133,-0.151676,0.019110,0.004777,0.051349,-50.167206,32.269958,48.530212,,,,,,
1484020765.924274,-1.422404,0.009902,-2.505880,0.282822,-0.146449,0.061443,-0.988962,-0.009902,-0.147841,0.004648,-0.007081,0.016035,-50.092026,32.270386,48.905334,,,,,,
1484020765.944294,-1.426355,0.009561,-2.500117,0.278160,-0.233528,0.049787,-0.989541,-0.009561,-0.143933,0.026193,0.009531,-0.035587,-50.092026,32.270386,48.905334,,,,,,
1484020765.964283,-1.430351,0.009711,-2.495612,0.166516,-0.117685,0.004199,-0.990107,-0.009711,-0.139978,0.028132,-0.020364,0.044946,-50.766937,32.271667,49.054260,,,,,,
1484020765.984302,-1.428248,0.009620,-2.493843,0.076724,0.188302,0.032944,-0.989811,-0.009620,-0.142059,-0.003765,-0.018624,0.080429,-50.539276,32.722534,49.877380,,,,,,
1484020766.004291,-1.426908,0.009160,-2.491727,0.108317,-0.048158,0.034040,-0.989624,-0.009160,-0.143386,0.008332,-0.028804,-0.031952,-50.164169,32.722351,50.102966,,,,,,
1484020766.024311,-1.430483,0.008876,-2.488666,0.176753,-0.218479,0.037564,-0.990133,-0.008876,-0.139848,0.011419,-0.012013,-0.031264,-50.315033,32.572144,49.878479,,,,,,
1484020766.044300,-1.433698,0.008874,-2.484867,0.184449,-0.096310,0.018899,-0.990578,-0.008874,-0.136664,0.020027,0.005685,0.017401,-50.315033,32.572144,49.878479,,,,,,
1484020766.064320,-1.432974,0.009259,-2.481535,0.160400,0.139176,-0.005628,-0.990475,-0.009258,-0.137380,0.029095,-0.002155,0.033285,-50.389130,32.722717,50.177612,,,,,,
1484020766.084309,-1.435425,0.010665,-2.479952,0.090654,-0.106706,0.025143,-0.990795,-0.010664,-0.134950,-0.022206,-0.023927,0.013002,-50.315399,32.423279,50.629211,,,,,,
1484020766.104328,-1.434708,0.010616,-2.476649,0.249321,0.219523,0.029799,-0.990698,-0.010616,-0.135661,0.030692,0.005123,0.043697,-50.541626,32.198303,50.405029,,,,,,
1484020766.124317,-1.427485,0.012182,-2.472426,0.133404,0.330026,0.001316,-0.989675,-0.012182,-0.142810,0.023366,-0.020411,-0.013409,-49.791718,32.196960,50.256165,,,,,,
1484020766.144337,-1.421648,0.012074,-2.470965,0.060319,0.254001,0.014915,-0.988826,-0.012074,-0.148585,0.006480,-0.005306,-0.041250,-49.791718,32.196960,50.256165,,,,,,
1484020766.164326,-1.415294,0.009875,-2.469479,0.073193,0.244596,0.005518,-0.987886,-0.009875,-0.154869,0.016542,0.039569,-0.025887,-50.465927,32.348083,50.329407,,,,,,
1484020766.184345,-1.408378,0.009930,-2.468828,0.020943,0.390645,-0.000837,-0.986791,-0.009930,-0.161697,0.009847,0.018795,0.030532,-50.091537,32.271851,49.880310,,,,,,
1484020766.204334,-1.399961,0.007936,-2.468780,-0.006297,0.468961,-0.006186,-0.985412,-0.007936,-0.170000,0.015899,0.039964,0.013155,-49.418335,31.969910,49.282837,,,,,,
1484020766.224354,-1.390290,0.008026,-2.468877,-0.002261,0.499781,-0.004450,-0.983721,-0.008026,-0.179522,0.011065,-0.003586,0.006090,-49.866837,32.270569,49.280701,,,,,,
1484020766.244343,-1.380106,0.008277,-2.468935,-0.006268,0.757669,-0.006824,-0.981840,-0.008277,-0.189531,0.010755,-0.004159,0.081605,-49.866837,32.270569,49.280701,,,,,,
1484020766.264332,-1.359958,0.008316,-2.469125,-0.011423,1.171646,-0.009135,-0.977822,-0.008315,-0.209273,0.011040,-0.008485,0.118635,-50.093185,32.045288,48.831482,,,,,,
1484020766.284351,-1.348707,0.008375,-2.469129,0.004851,0.105935,0.009326,-0.975405,-0.008375,-0.220260,0.015200,0.004438,-1.038087,-49.569839,31.817871,47.783386,,,,,,
1484020766.304340,-1.345562,0.008371,-2.469112,0.000706,0.093169,-0.000116,-0.974708,-0.008371,-0.223327,0.006476,0.001307,-0.329071,-50.096008,31.667480,46.958313,,,,,,
1484020766.324360,-1.345546,0.008379,-2.469075,0.001490,-0.014045,0.000243,-0.974704,-0.008379,-0.223343,0.015765,-0.001249,-0.021988,-50.094818,31.892700,47.107239,,,,,,
1484020766.344349,-1.345926,0.008362,-2.469072,0.000505,-0.025733,0.001462,-0.974789,-0.008362,-0.222972,0.013134,-0.002181,-0.012380,-50.094818,31.892700,47.107239,,,,,,
1484020766.364368,-1.346592,0.008332,-2.469043,0.002670,-0.031024,0.003672,-0.974937,-0.008332,-0.222323,0.011467,-0.001297,-0.014402,-49.870117,31.817566,47.257874,,,,,,
1484020766.384357,-1.346592,0.008336,-2.469043,0.000300,0.002930,0.000014,-0.974937,-0.008336,-0.222323,0.020027,-0.004252,0.005206,-49.645447,31.816223,46.583252,,,,,,
1484020766.404350,-1.346740,0.008327,-2.469044,-0.000713,-0.004510,0.000110,-0.974970,-0.008327,-0.222179,0.015055,-0.004811,-0.002186,-49.644958,31.891602,46.807861,,,,,,
1484020766.424339,-1.346861,0.008330,-2.469021,0.001420,-0.004491,0.000116,-0.974997,-0.008330,-0.222060,0.010047,-0.004823,0.000442,-49.720566,31.742188,47.108521,,,,,,
1484020766.444358,-1.346951,0.008334,-2.468993,0.001420,-0.004491,0.000116,-0.975017,-0.008334,-0.221973,0.010402,-0.002195,-0.001080,-49.720566,31.742188,47.108521,,,,,,
1484020766.464347,-1.347025,0.008327,-2.468941,0.001417,-0.004492,0.001183,-0.975034,-0.008327,-0.221901,0.016827,-0.004429,-0.002876,-49.944809,31.892456,47.107422,,,,,,
1484020766.484367,-1.347115,0.008320,-2.468915,0.001421,-0.004491,0.000116,-0.975054,-0.008320,-0.221813,0.015428,-0.000347,-0.004307,-49.419586,31.966248,46.807800,,,,,,
1484020766.504356,-1.346607,0.008416,-2.468877,0.001409,-0.003419,0.001167,-0.974940,-0.008416,-0.222308,0.014201,-0.001731,-0.006787,-49.796310,31.666138,46.358826,,,,,,
1484020766.524376,-1.345438,0.008646,-2.468881,-0.000713,-0.004475,0.000105,-0.974678,-0.008646,-0.223447,0.013588,-0.001791,-0.007785,-49.870529,31.742493,47.183289,,,,,,
1484020766.544365,-1.344602,0.008921,-2.468876,0.001428,-0.005500,0.000121,-0.974488,-0.008921,-0.224262,0.013139,-0.003805,-0.006314,-49.870529,31.742493,47.183289,,,,,,
1484020766.564384,-1.344365,0.009343,-2.468854,0.001414,-0.002306,-0.002061,-0.974431,-0.009343,-0.224492,0.011891,-0.004695,0.000478,-49.494141,32.041565,46.957336,,,,,,
1484020766.584373,-1.344225,0.009645,-2.468837,0.000362,-0.004435,-0.000974,-0.974397,-0.009644,-0.224628,0.014100,-0.003081,0.000278,-49.419968,31.891235,46.808167,,,,,,
1484020766.604393,-1.344200,0.009850,-2.468792,0.002498,-0.005478,0.001175,-0.974389,-0.009849,-0.224651,0.011712,-0.002174,0.000393,-49.495758,31.741272,46.733887,,,,,,
1484020766.624382,-1.343895,0.010040,-2.468773,0.001427,-0.004417,0.000089,-0.974319,-0.010040,-0.224948,0.012405,-0.002060,-0.003964,-50.094894,31.892456,46.957214,,,,,,
1484020766.644401,-1.343612,0.010167,-2.468735,0.002483,-0.003340,0.001142,-0.974254,-0.010166,-0.225223,0.013286,-0.001339,-0.002514,-50.094894,31.892456,46.957214,,,,,,
1484020766.664390,-1.343284,0.010163,-2.468702,0.001424,-0.004403,0.001153,-0.974180,-0.010162,-0.225543,0.013487,0.000900,-0.003370,-49.871582,31.591553,46.584045,,,,,,
1484020766.684379,-1.342884,0.010161,-2.468680,0.001411,-0.002271,0.000059,-0.974090,-0.010161,-0.225932,0.012039,-0.000016,-0.003636,-50.021118,31.667053,46.733459,,,,,,
1484020766.704399,-1.342646,0.010203,-2.468667,0.001426,-0.004388,0.000086,-0.974036,-0.010203,-0.226165,0.010931,-0.000707,-0.001100,-49.645630,31.741821,46.958618,,,,,,
1484020766.724388,-1.342532,0.010335,-2.468641,0.001426,-0.004384,0.000084,-0.974009,-0.010335,-0.226275,0.011972,-0.001750,-0.000760,-50.094330,31.968018,47.331848,,,,,,
1484020766.744407,-1.342452,0.010494,-2.468602,0.002491,-0.004372,0.001151,-0.973989,-0.010494,-0.226352,0.013662,-0.002888,0.001041,-50.094330,31.968018,47.331848,,,,,,
1484020766.764396,-1.342479,0.010635,-2.468565,0.002495,-0.004370,0.000082,-0.973994,-0.010635,-0.226326,0.013712,-0.002854,0.000847,-49.645447,31.816223,46.583252,,,,,,
1484020766.784416,-1.342375,0.010843,-2.468529,0.002496,-0.004366,0.000079,-0.973968,-0.010842,-0.226427,0.014358,-0.003562,-0.001814,-50.095337,31.817261,46.807556,,,,,,
1484020766.804405,-1.342219,0.010950,-2.468510,0.002500,-0.004361,-0.000989,-0.973931,-0.010950,-0.226579,0.013238,-0.000616,-0.001998,-49.870148,31.817444,47.182861,,,,,,
1484020766.824424,-1.341981,0.011014,-2.468491,0.001435,-0.005427,0.001154,-0.973877,-0.011014,-0.226811,0.013061,-0.001162,-0.003933,-49.644516,31.966797,46.957520,,,,,,
1484020766.844413,-1.341770,0.011017,-2.468476,0.000366,-0.004367,-0.000996,-0.973829,-0.011017,-0.227016,0.012617,0.001037,-0.003041,-49.644516,31.966797,46.957520,,,,,,
1484020766.864433,-1.341670,0.011037,-2.468471,-0.000704,-0.004374,0.000067,-0.973806,-0.011036,-0.227113,0.012624,-0.000942,-0.001296,-49.794968,31.891846,46.807617,,,,,,
1484020766.884422,-1.341600,0.011084,-2.468443,0.002501,-0.005405,0.001156,-0.973790,-0.011084,-0.227181,0.012974,-0.000925,0.000206,-49.195053,31.890686,46.658569,,,,,,
1484020766.904441,-1.341596,0.011166,-2.468410,0.000363,-0.004359,0.000068,-0.973788,-0.011166,-0.227184,0.012454,-0.001362,0.000378,-49.719971,31.891724,46.807739,,,,,,
1484020766.924430,-1.341584,0.011241,-2.468389,0.002497,-0.004339,0.000073,-0.973784,-0.011241,-0.227196,0.014510,-0.000112,0.000619,-49.945572,31.816284,46.357849,,,,,,
1484020766.944450,-1.341530,0.011248,-2.468359,0.001423,-0.003284,0.000055,-0.973772,-0.011247,-0.227249,0.011919,-0.000517,0.000625,-49.945572,31.816284,46.357849,,,,,,
1484020766.964439,-1.341461,0.011255,-2.468350,0.000367,-0.004350,-0.001000,-0.973756,-0.011255,-0.227316,0.012269,0.001596,-0.000727,-49.869934,31.891968,46.882507,,,,,,
1484020766.984459,-1.341311,0.011243,-2.468339,0.000360,-0.004348,0.001133,-0.973722,-0.011243,-0.227462,0.014005,-0.001406,-0.001313,-49.870346,31.816895,46.807861,,,,,,
1484020767.004448,-1.341216,0.011281,-2.468323,0.001422,-0.003273,0.000055,-0.973700,-0.011281,-0.227555,0.011359,-0.000209,-0.002456,-49.794403,31.967407,47.182251,,,,,,
1484020767.024467,-1.341121,0.011344,-2.468316,0.000374,-0.005400,-0.000987,-0.973678,-0.011344,-0.227647,0.011855,0.000311,-0.001510,-49.345978,31.666504,47.034485,,,,,,
1484020767.044456,-1.341069,0.011402,-2.468305,0.001438,-0.005389,0.000082,-0.973665,-0.011402,-0.227697,0.011522,-0.000363,-0.000162,-49.345978,31.666504,47.034485,,,,,,
1484020767.064476,-1.341090,0.011456,-2.468274,0.002505,-0.005378,0.000084,-0.973669,-0.011455,-0.227677,0.012060,-0.000645,0.001801,-49.495422,31.816101,46.658508,,,,,,
1484020767.084465,-1.341081,0.011461,-2.468258,0.000372,-0.005395,0.000077,-0.973667,-0.011461,-0.227686,0.012959,-0.000090,0.000544,-49.644852,31.891907,47.032898,,,,,,
1484020767.104484,-1.341069,0.011450,-2.468222,0.002489,-0.003251,0.000055,-0.973665,-0.011450,-0.227697,0.010072,0.000632,-0.000819,-49.719818,31.892151,47.107788,,,,,,
1484020767.124473,-1.341095,0.011510,-2.468167,0.002497,-0.004311,0.000069,-0.973670,-0.011510,-0.227672,0.010901,-0.001353,-0.000432,-49.945007,31.891907,46.732422,,,,,,
1484020767.144462,-1.341056,0.011550,-2.468152,0.002505,-0.005370,0.000082,-0.973661,-0.011550,-0.227710,0.013486,-0.000596,-0.000867,-49.945007,31.891907,46.732422,,,,,,
1484020767.164482,-1.341015,0.011621,-2.468118,0.001423,-0.003253,0.000050,-0.973650,-0.011620,-0.227750,0.011095,-0.000983,-0.000110,-49.420563,31.741699,47.109009,,,,,,
1484020767.184471,-1.340986,0.011591,-2.468087,0.001424,-0.004315,0.002198,-0.973644,-0.011591,-0.227778,0.013866,0.001794,0.001307,-49.870270,31.817078,46.957886,,,,,,
1484020767.204490,-1.340918,0.011585,-2.468064,0.000364,-0.004319,0.000062,-0.973629,-0.011585,-0.227844,0.013134,-0.000378,-0.000595,-49.569962,31.891479,46.807983,,,,,,
1484020767.224479,-1.340919,0.011582,-2.468037,0.001430,-0.004308,0.000065,-0.973629,-0.011581,-0.227842,0.011303,-0.000397,0.000212,-49.645905,31.741028,46.433594,,,,,,
1484020767.244499,-1.340921,0.011602,-2.468011,0.001430,-0.004306,0.000065,-0.973629,-0.011602,-0.227841,0.011456,0.000829,0.001202,-49.645905,31.741028,46.433594,,,,,,
1484020767.264488,-1.340944,0.011614,-2.468002,-0.001780,-0.003272,0.001108,-0.973634,-0.011614,-0.227818,0.011659,0.000246,0.001012,-49.644180,32.041687,46.882141,,,,,,
1484020767.284507,-1.340930,0.011640,-2.467980,0.000364,-0.004312,0.000061,-0.973631,-0.011639,-0.227831,0.012327,0.000562,0.000033,-49.645340,31.816589,46.808228,,,,,,
1484020767.304496,-1.340935,0.011688,-2.467949,0.000361,-0.004312,0.001127,-0.973632,-0.011687,-0.227827,0.012526,-0.000993,0.002104,-49.420715,31.741272,46.808960,,,,,,
1484020767.324516,-1.340948,0.011649,-2.467927,0.001423,-0.003238,0.000050,-0.973635,-0.011649,-0.227814,0.012240,0.002326,0.001465,-49.646164,31.666382,46.658997,,,,,,
1484020767.344505,-1.340901,0.011694,-2.467928,0.000360,-0.003244,-0.001020,-0.973624,-0.011694,-0.227860,0.012778,0.000967,-0.000274,-49.646164,31.666382,46.658997,,,,,,
1484020767.364524,-1.340872,0.011710,-2.467910,0.000353,-0.003244,0.001112,-0.973617,-0.011710,-0.227889,0.011977,-0.001214,-0.000169,-49.045456,31.741455,47.334534,,,,,,
1484020767.384513,-1.340869,0.011703,-2.467887,0.001435,-0.005355,0.001144,-0.973616,-0.011702,-0.227891,0.013396,-0.000062,0.000566,-50.095184,31.817688,47.107605,,,,,,
1484020767.404544,-1.340892,0.011724,-2.467871,0.000367,-0.004300,-0.001007,-0.973621,-0.011724,-0.227869,0.011524,0.000219,0.000238,-49.420486,31.815735,46.508606,,,,,,
1484020767.424532,-1.340862,0.011823,-2.467841,0.000376,-0.005359,-0.000994,-0.973613,-0.011823,-0.227897,0.013363,-0.001864,-0.000923,-49.719849,31.892029,47.032776,,,,,,
1484020767.444552,-1.340846,0.011818,-2.467812,0.002509,-0.005338,-0.000988,-0.973610,-0.011818,-0.227913,0.012810,0.001289,-0.002159,-49.719849,31.892029,47.032776,,,,,,
1484020767.464541,-1.340832,0.011764,-2.467789,0.000364,-0.004294,0.000060,-0.973607,-0.011764,-0.227927,0.011495,0.000488,0.000724,-49.643616,32.117310,47.256714,,,,,,
1484020767.484560,-1.340806,0.011810,-2.467760,0.001437,-0.004279,-0.002071,-0.973601,-0.011810,-0.227952,0.013350,-0.001648,0.000108,-49.195679,31.741028,46.884277,,,,,,
1484020767.504550,-1.340781,0.011764,-2.467738,0.002497,-0.004270,0.000066,-0.973595,-0.011763,-0.227977,0.013085,0.000274,-0.000005,-49.646271,31.666016,46.433960,,,,,,
1484020767.524570,-1.340809,0.011764,-2.467710,0.000364,-0.004287,0.000060,-0.973602,-0.011764,-0.227949,0.011917,-0.000443,0.000563,-49.795181,31.817261,47.108032,,,,,,
1484020767.544559,-1.340763,0.011698,-2.467672,0.002485,-0.003205,0.001120,-0.973592,-0.011698,-0.227994,0.012762,0.001322,-0.000216,-49.795181,31.817261,47.108032,,,,,,
1484020767.564548,-1.340799,0.011691,-2.467633,0.001427,-0.004275,0.001131,-0.973601,-0.011691,-0.227959,0.011610,0.000048,0.000756,-49.869370,31.967590,47.257141,,,,,,
1484020767.584567,-1.340834,0.011712,-2.467618,0.001422,-0.003211,0.000050,-0.973608,-0.011712,-0.227926,0.014303,-0.000205,0.003270,-49.345459,31.815796,46.583679,,,,,,
1484020767.604556,-1.340828,0.011734,-2.467610,-0.000703,-0.004290,0.000058,-0.973607,-0.011733,-0.227931,0.013463,-0.000275,0.001872,-49.720413,31.816467,46.658142,,,,,,
1484020767.624576,-1.340849,0.011761,-2.467598,-0.000714,-0.003228,0.001110,-0.973611,-0.011761,-0.227910,0.013559,-0.000492,0.001577,-49.644775,31.892151,47.182861,,,,,,
1484020767.644565,-1.340873,0.011795,-2.467570,0.002520,-0.007443,0.000108,-0.973616,-0.011795,-0.227887,0.011015,-0.000717,0.001783,-49.644775,31.892151,47.182861,,,,,,
1484020767.664583,-1.340866,0.011804,-2.467558,0.001430,-0.004266,0.000062,-0.973614,-0.011803,-0.227894,0.011426,-0.001304,-0.000728,-49.419174,32.041321,46.882446,,,,,,
1484020767.684572,-1.340869,0.011823,-2.467532,0.001434,-0.004263,-0.001004,-0.973615,-0.011823,-0.227891,0.013135,-0.000918,0.000779,-49.270309,31.816101,46.883789,,,,,,
1484020767.704592,-1.340875,0.011835,-2.467492,0.002505,-0.005315,0.000079,-0.973616,-0.011835,-0.227885,0.011977,0.002085,0.000559,-49.345123,31.890686,46.508301,,,,,,
1484020767.724581,-1.340912,0.011817,-2.467448,0.002494,-0.004253,0.001132,-0.973625,-0.011817,-0.227849,0.012275,0.001349,0.000813,-49.718689,32.117188,47.106689,,,,,,
1484020767.744601,-1.340862,0.011783,-2.467414,0.001427,-0.004260,0.001130,-0.973614,-0.011782,-0.227898,0.013119,0.000338,-0.001335,-49.718689,32.117188,47.106689,,,,,,
1484020767.764590,-1.340890,0.011785,-2.467389,0.001441,-0.005318,-0.000989,-0.973620,-0.011785,-0.227870,0.012835,0.000829,0.002330,-48.969864,31.890869,47.033936,,,,,,
1484020767.784610,-1.340916,0.011809,-2.467359,0.001438,-0.005317,0.000077,-0.973626,-0.011808,-0.227845,0.011971,-0.002276,-0.001418,-49.870346,31.816895,46.807861,,,,,,
1484020767.804599,-1.340929,0.011888,-2.467357,0.000353,-0.003203,0.001111,-0.973628,-0.011888,-0.227832,0.012584,-0.002974,0.000675,-49.420380,31.816101,46.733643,,,,,,
1484020767.824618,-1.340932,0.011915,-2.467337,0.001439,-0.005314,0.000074,-0.973628,-0.011915,-0.227829,0.011943,-0.001147,0.000107,-49.645142,31.817139,47.183228,,,,,,
1484020767.844607,-1.340883,0.011925,-2.467310,0.001431,-0.004249,0.000060,-0.973617,-0.011924,-0.227877,0.013961,-0.000511,-0.001020,-49.645142,31.817139,47.183228,,,,,,
1484020767.864626,-1.340877,0.011939,-2.467295,-0.001761,-0.005337,0.000065,-0.973615,-0.011939,-0.227883,0.011625,0.000052,0.001076,-49.195984,31.666260,47.034668,,,,,,
1484020767.884615,-1.340898,0.011939,-2.467265,0.001428,-0.004247,0.001127,-0.973620,-0.011939,-0.227862,0.012805,0.001547,0.000079,-49.045578,31.814941,46.359192,,,,,,
1484020767.904635,-1.340856,0.011928,-2.467229,0.001431,-0.004243,0.000061,-0.973611,-0.011928,-0.227903,0.012215,0.001476,-0.000765,-49.870193,31.817322,47.107910,,,,,,
1484020767.924624,-1.340893,0.011942,-2.467192,0.002498,-0.004232,0.000064,-0.973619,-0.011942,-0.227867,0.011308,-0.000662,0.000344,-49.720306,31.816772,46.883118,,,,,,
1484020767.944643,-1.340897,0.011910,-2.467181,0.000364,-0.004249,0.000058,-0.973620,-0.011909,-0.227863,0.012652,0.001198,0.000370,-49.720306,31.816772,46.883118,,,,,,
1484020767.964633,-1.340897,0.011901,-2.467144,0.002508,-0.005289,-0.000988,-0.973620,-0.011901,-0.227863,0.013080,-0.000123,-0.000668,-48.968735,32.115906,47.032776,,,,,,
1484020767.984653,-1.340888,0.011861,-2.467117,0.002508,-0.005287,-0.000987,-0.973619,-0.011861,-0.227872,0.011873,0.000127,-0.000124,-49.495636,31.741577,46.958862,,,,,,
1484020768.004642,-1.340862,0.011863,-2.467100,0.001430,-0.004233,0.000063,-0.973613,-0.011863,-0.227898,0.014018,0.000434,0.000130,-49.571045,31.666565,46.884094,,,,,,
1484020768.024631,-1.340886,0.011888,-2.467067,0.001423,-0.003170,0.000048,-0.973618,-0.011887,-0.227874,0.012070,-0.000777,0.000519,-49.270340,31.816040,46.808777,,,,,,
1484020768.044650,-1.340940,0.011949,-2.467057,0.001428,-0.004232,0.001127,-0.973630,-0.011949,-0.227821,0.012509,-0.003981,0.001396,-49.270340,31.816040,46.808777,,,,,,
1484020768.064639,-1.340918,0.011954,-2.467027,0.002513,-0.006343,0.000092,-0.973624,-0.011953,-0.227843,0.010734,-0.001551,-0.000077,-49.571350,31.591797,47.034485,,,,,,
1484020768.084659,-1.340884,0.012033,-2.467007,0.001447,-0.006349,0.000087,-0.973616,-0.012033,-0.227876,0.013258,-0.002250,-0.000442,-49.869781,31.892456,47.182495,,,,,,
1484020768.104648,-1.340870,0.012033,-2.466984,0.002490,-0.003153,0.000048,-0.973613,-0.012033,-0.227890,0.012385,0.000817,0.000671,-49.568420,32.117737,47.631836,,,,,,
1484020768.124666,-1.340880,0.012012,-2.466957,0.001416,-0.002099,0.000031,-0.973615,-0.012011,-0.227880,0.012479,0.000048,0.001226,-49.569397,31.967041,47.182617,,,,,,
1484020768.144655,-1.340832,0.012036,-2.466941,0.001436,-0.005282,0.001140,-0.973604,-0.012036,-0.227926,0.012407,-0.001239,-0.000956,-49.569397,31.967041,47.182617,,,,,,
1484020768.164675,-1.340819,0.012062,-2.466923,0.000354,-0.003166,0.001108,-0.973601,-0.012062,-0.227939,0.010557,-0.001076,0.000614,-49.345642,31.741394,46.959106,,,,,,
1484020768.184664,-1.340832,0.012025,-2.466904,0.000373,-0.005286,0.000070,-0.973604,-0.012024,-0.227927,0.013933,-0.000351,-0.001016,-49.719437,31.967163,47.107422,,,,,,
1484020768.204684,-1.340804,0.011991,-2.466873,0.000362,-0.004223,0.001123,-0.973598,-0.011990,-0.227954,0.014187,0.000775,0.001788,-49.419586,31.892334,47.558167,,,,,,
1484020768.224673,-1.340717,0.011969,-2.466842,0.002506,-0.005261,0.000077,-0.973579,-0.011969,-0.228038,0.012077,0.000464,-0.002568,-49.120392,31.815674,46.734070,,,,,,
1484020768.244693,-1.340698,0.012016,-2.466817,0.001439,-0.005268,0.000074,-0.973574,-0.012016,-0.228057,0.012362,-0.001076,0.000808,-49.120392,31.815674,46.734070,,,,,,
1484020768.264682,-1.340699,0.012039,-2.466777,0.002503,-0.005258,0.001143,-0.973574,-0.012039,-0.228055,0.012468,-0.000626,-0.000231,-49.571472,31.665344,46.059082,,,,,,
1484020768.284701,-1.340731,0.012060,-2.466761,0.000354,-0.003152,0.001108,-0.973581,-0.012060,-0.228025,0.012170,-0.000483,0.001722,-49.496048,31.666443,46.884216,,,,,,
1484020768.304689,-1.340809,0.012022,-2.466738,0.001432,-0.004203,0.000060,-0.973599,-0.012022,-0.227949,0.012646,0.002012,0.002180,-49.570343,31.816467,46.808350,,,,,,
1484020768.324709,-1.340833,0.011996,-2.466699,0.001428,-0.004203,0.001127,-0.973605,-0.011995,-0.227926,0.013293,0.000261,0.000768,-49.420303,31.816284,46.883606,,,,,,
1484020768.344698,-1.340813,0.011984,-2.466679,0.001424,-0.003138,0.000046,-0.973600,-0.011984,-0.227945,0.013395,-0.000269,0.000558,-49.420303,31.816284,46.883606,,,,,,
1484020768.364718,-1.340820,0.012032,-2.466651,0.000357,-0.003146,0.000042,-0.973601,-0.012031,-0.227938,0.012374,0.000602,-0.000349,-49.571533,31.591248,46.659485,,,,,,
1484020768.384707,-1.340777,0.012023,-2.466617,0.001432,-0.004195,0.000059,-0.973592,-0.012022,-0.227980,0.012685,0.000532,-0.000322,-49.870865,31.667603,47.258667,,,,,,
1484020768.404710,-1.340764,0.012044,-2.466602,0.001432,-0.004193,0.000059,-0.973588,-0.012044,-0.227993,0.010881,-0.000407,0.000667,-49.120041,31.816650,47.409058,,,,,,
1484020768.424699,-1.340787,0.012018,-2.466564,0.001424,-0.003130,0.000045,-0.973594,-0.012018,-0.227970,0.012306,0.000192,0.002476,-49.496964,31.515991,46.584961,,,,,,
1484020768.444719,-1.340762,0.012017,-2.466553,0.000362,-0.004200,0.001123,-0.973588,-0.012016,-0.227995,0.013246,-0.001152,0.000196,-49.496964,31.515991,46.584961,,,,,,
1484020768.464708,-1.340768,0.012001,-2.466525,0.000365,-0.004197,0.000057,-0.973590,-0.012001,-0.227988,0.013934,0.000542,0.000327,-49.419098,32.041565,47.032471,,,,,,
1484020768.484697,-1.340773,0.012000,-2.466506,0.001436,-0.005248,0.001140,-0.973591,-0.011999,-0.227984,0.011555,-0.000040,-0.000272,-49.794327,31.967590,47.332275,,,,,,
1484020768.504716,-1.340698,0.011967,-2.466496,-0.000702,-0.004201,0.000054,-0.973574,-0.011967,-0.228057,0.013354,0.000004,-0.002077,-49.570709,31.741516,46.808716,,,,,,
1484020768.524705,-1.340636,0.011918,-2.466470,0.001431,-0.004178,0.000061,-0.973561,-0.011917,-0.228117,0.014058,0.001755,-0.002245,-49.645340,31.816589,46.808228,,,,,,
1484020768.544725,-1.340614,0.011929,-2.466434,0.001431,-0.004176,0.000061,-0.973556,-0.011928,-0.228139,0.012206,-0.000202,-0.001292,-49.645340,31.816589,46.808228,,,,,,
1484020768.564714,-1.340596,0.011933,-2.466414,0.001434,-0.004172,-0.001005,-0.973551,-0.011932,-0.228156,0.010707,0.000168,-0.000772,-49.722626,31.366638,46.735413,,,,,,
1484020768.584733,-1.340600,0.011929,-2.466397,-0.000710,-0.003129,0.000042,-0.973552,-0.011929,-0.228152,0.011074,-0.000065,0.001086,-49.570633,31.741699,46.958740,,,,,,
1484020768.604722,-1.340630,0.011942,-2.466381,0.000372,-0.005241,0.000073,-0.973559,-0.011941,-0.228124,0.011736,0.001138,-0.001186,-49.644516,31.966797,46.957520,,,,,,
1484020768.624742,-1.340608,0.011963,-2.466385,0.001432,-0.004168,0.000061,-0.973554,-0.011963,-0.228145,0.014600,-0.000580,0.000575,-49.644958,31.891602,46.807861,,,,,,
1484020768.644731,-1.340580,0.011940,-2.466370,0.001424,-0.003103,0.000048,-0.973548,-0.011940,-0.228172,0.014105,0.000450,-0.001137,-49.644958,31.891602,46.807861,,,,,,
1484020768.664750,-1.340559,0.011953,-2.466347,0.001424,-0.003101,0.000047,-0.973543,-0.011952,-0.228192,0.013185,0.000432,0.000562,-49.720078,31.817444,47.333130,,,,,,
1484020768.684739,-1.340555,0.011954,-2.466317,0.001432,-0.004161,0.000061,-0.973542,-0.011953,-0.228196,0.012604,-0.000009,-0.000503,-49.643951,32.116272,46.581787,,,,,,
1484020768.704759,-1.340493,0.011956,-2.466288,0.001421,-0.003097,0.001113,-0.973528,-0.011955,-0.228257,0.012422,0.000588,-0.000961,-49.270340,31.816040,46.808777,,,,,,
1484020768.724748,-1.340478,0.011944,-2.466254,0.001432,-0.004156,0.000061,-0.973524,-0.011943,-0.228271,0.011793,0.001461,0.000549,-49.721161,31.666504,46.658875,,,,,,
1484020768.744767,-1.340510,0.011958,-2.466222,0.002498,-0.004145,0.000064,-0.973531,-0.011958,-0.228240,0.011816,0.000468,0.002990,-49.721161,31.666504,46.658875,,,,,,
1484020768.764756,-1.340514,0.011978,-2.466194,0.001440,-0.005214,0.000075,-0.973532,-0.011977,-0.228236,0.011069,-0.000657,0.000835,-49.870087,31.891541,46.582520,,,,,,
1484020768.784776,-1.340532,0.011991,-2.466160,0.001432,-0.004151,0.000060,-0.973536,-0.011991,-0.228218,0.012477,-0.000445,0.000984,-49.570374,31.816345,46.733398,,,,,,
1484020768.804765,-1.340508,0.012003,-2.466144,0.001424,-0.003087,0.000046,-0.973531,-0.012002,-0.228242,0.012257,0.000985,-0.000076,-49.420486,31.815735,46.508606,,,,,,
1484020768.824785,-1.340452,0.012001,-2.466130,0.000369,-0.004154,-0.001009,-0.973518,-0.012000,-0.228296,0.010856,0.000648,-0.002875,-49.421616,31.590759,46.509705,,,,,,
1484020768.844774,-1.340424,0.012001,-2.466098,0.001435,-0.004142,-0.001006,-0.973511,-0.012001,-0.228324,0.013566,0.001152,-0.001169,-49.421616,31.590759,46.509705,,,,,,
1484020768.864793,-1.340455,0.011986,-2.466071,0.002499,-0.004132,0.000064,-0.973519,-0.011985,-0.228293,0.011940,0.000129,0.001288,-49.646423,31.591675,46.884338,,,,,,
1484020768.884782,-1.340468,0.011919,-2.466048,0.000365,-0.004149,0.000060,-0.973522,-0.011918,-0.228281,0.011990,0.001344,0.000742,-49.195236,31.816223,47.033936,,,,,,
1484020768.904802,-1.340483,0.011898,-2.466031,-0.000709,-0.003095,0.000043,-0.973526,-0.011898,-0.228266,0.012222,0.000515,0.000407,-49.496460,31.591370,46.809570,,,,,,
1484020768.924791,-1.340537,0.011858,-2.466001,0.002506,-0.005190,0.000081,-0.973539,-0.011858,-0.228214,0.011304,-0.000227,0.002781,-50.020966,31.667480,47.033447,,,,,,
1484020768.944780,-1.340561,0.011869,-2.465995,-0.000706,-0.003092,-0.001023,-0.973544,-0.011869,-0.228190,0.010943,-0.000659,0.001674,-50.020966,31.667480,47.033447,,,,,,
1484020768.964799,-1.340543,0.011814,-2.465974,0.001436,-0.005196,0.001145,-0.973541,-0.011813,-0.228208,0.013015,0.001971,-0.000125,-49.719223,32.041748,46.807007,,,,,,
1484020768.984788,-1.340531,0.011807,-2.465941,0.003564,-0.004113,0.000070,-0.973538,-0.011807,-0.228220,0.012433,-0.000552,-0.000448,-49.571320,31.665771,46.359131,,,,,,
1484020769.004808,-1.340575,0.011821,-2.465914,0.001442,-0.005191,-0.000988,-0.973548,-0.011821,-0.228177,0.011603,0.000636,-0.000781,-49.571457,31.591492,46.809448,,,,,,
1484020769.024797,-1.340559,0.011783,-2.465904,0.002493,-0.003056,-0.001013,-0.973545,-0.011783,-0.228193,0.012195,0.001086,0.000791,-49.796127,31.666748,46.733826,,,,,,
1484020769.044816,-1.340550,0.011806,-2.465891,0.001442,-0.005186,-0.000987,-0.973542,-0.011806,-0.228201,0.011338,0.000392,0.000494,-49.796127,31.666748,46.733826,,,,,,
1484020769.064805,-1.340606,0.011795,-2.465870,0.001434,-0.004124,-0.001001,-0.973555,-0.011795,-0.228147,0.010848,0.000610,0.001355,-49.870422,31.816650,46.657898,,,,,,
1484020769.084825,-1.340612,0.011779,-2.465849,0.000364,-0.004132,0.000063,-0.973557,-0.011778,-0.228141,0.013077,0.002013,0.001487,-49.871170,31.666687,46.658691,,,,,,
1484020769.104814,-1.340630,0.011733,-2.465824,0.001431,-0.004121,0.000066,-0.973561,-0.011732,-0.228124,0.012120,0.002577,0.000890,-49.946091,31.667053,46.808533,,,,,,
1484020769.124833,-1.340616,0.011713,-2.465789,0.001431,-0.004119,0.000067,-0.973558,-0.011712,-0.228138,0.011583,0.000726,0.000599,-49.721008,31.666931,46.958862,,,,,,
1484020769.144822,-1.340577,0.011697,-2.465761,0.000364,-0.004126,0.000064,-0.973550,-0.011697,-0.228176,0.011636,-0.001029,0.000499,-49.721008,31.666931,46.958862,,,,,,
1484020769.164842,-1.340563,0.011676,-2.465733,0.001427,-0.004115,0.001134,-0.973547,-0.011675,-0.228189,0.013677,0.000842,-0.001791,-49.495712,31.741394,46.808838,,,,,,
1484020769.184831,-1.340538,0.011663,-2.465704,0.000361,-0.004122,0.001131,-0.973541,-0.011663,-0.228213,0.012955,0.001897,-0.000073,-49.720306,31.816772,46.883118,,,,,,
1484020769.204850,-1.340518,0.011649,-2.465671,0.001427,-0.004110,0.001134,-0.973537,-0.011649,-0.228233,0.012126,0.000495,0.001747,-49.795227,31.817139,47.033020,,,,,,
1484020769.224840,-1.340540,0.011593,-2.465645,0.001435,-0.005170,0.001149,-0.973543,-0.011593,-0.228212,0.012178,0.001919,0.000795,-49.644287,32.041382,46.657166,,,,,,
1484020769.244859,-1.340553,0.011617,-2.465623,0.000368,-0.005178,0.001146,-0.973545,-0.011616,-0.228199,0.012226,-0.001155,0.001011,-49.644287,32.041382,46.657166,,,,,,
1484020769.264848,-1.340543,0.011624,-2.465582,0.002505,-0.005156,0.000086,-0.973543,-0.011623,-0.228209,0.012346,0.000530,0.000288,-49.643875,32.116516,46.731812,,,,,,
1484020769.284868,-1.340564,0.011643,-2.465558,0.000361,-0.004113,0.001132,-0.973547,-0.011643,-0.228189,0.010702,-0.000900,0.001168,-49.644180,32.041687,46.882141,,,,,,
1484020769.304857,-1.340534,0.011652,-2.465543,0.000364,-0.004109,0.000065,-0.973540,-0.011652,-0.228217,0.012847,-0.000113,-0.000603,-49.644104,32.041931,47.032166,,,,,,
1484020769.324876,-1.340521,0.011615,-2.465515,0.001438,-0.005159,0.000083,-0.973538,-0.011615,-0.228230,0.011517,0.001818,-0.001399,-49.795197,31.891113,46.357666,,,,,,
1484020769.344865,-1.340523,0.011603,-2.465492,0.001438,-0.005157,0.000083,-0.973539,-0.011602,-0.228228,0.012738,-0.000025,0.000643,-49.795197,31.891113,46.357666,,,,,,
1484020769.364854,-1.340498,0.011604,-2.465480,0.000356,-0.003041,0.000052,-0.973533,-0.011603,-0.228252,0.012458,-0.000039,0.000820,-49.495575,31.815613,46.358521,,,,,,
1484020769.384874,-1.340481,0.011630,-2.465460,0.000361,-0.004101,0.001132,-0.973529,-0.011629,-0.228269,0.012103,-0.000776,-0.000368,-50.021652,31.591553,46.433777,,,,,,
1484020769.404844,-1.340481,0.011661,-2.465424,0.001439,-0.005150,0.000082,-0.973528,-0.011661,-0.228269,0.011965,-0.002102,0.000043,-49.793915,32.116638,46.656555,,,,,,
1484020769.424863,-1.340495,0.011701,-2.465416,0.001443,-0.005147,-0.000986,-0.973531,-0.011701,-0.228255,0.012212,-0.001513,-0.001221,-49.569778,31.965881,46.432617,,,,,,
1484020769.444852,-1.340495,0.011665,-2.465401,0.000373,-0.005155,0.000079,-0.973532,-0.011664,-0.228255,0.012380,0.000327,-0.001344,-49.569778,31.965881,46.432617,,,,,,
1484020769.464872,-1.340477,0.011683,-2.465374,0.001432,-0.004082,0.000067,-0.973527,-0.011683,-0.228273,0.011110,0.000742,-0.000533,-49.721848,31.590576,46.059265,,,,,,
1484020769.484861,-1.340480,0.011695,-2.465334,0.002495,-0.004072,0.001137,-0.973528,-0.011694,-0.228270,0.010393,0.000311,-0.000719,-49.719589,31.966736,46.807373,,,,,,
1484020769.504880,-1.340404,0.011698,-2.465301,0.002490,-0.003006,0.000056,-0.973510,-0.011698,-0.228344,0.012863,0.001047,-0.000934,-49.570267,31.816650,46.958374,,,,,,
1484020769.524869,-1.340372,0.011757,-2.465276,0.001432,-0.004074,0.000066,-0.973502,-0.011756,-0.228375,0.012351,-0.003258,0.000622,-49.795868,31.741394,46.508362,,,,,,
1484020769.544889,-1.340326,0.011740,-2.465248,0.001444,-0.006195,0.001161,-0.973492,-0.011740,-0.228419,0.012036,0.000433,-0.000966,-49.795868,31.741394,46.508362,,,,,,
1484020769.564878,-1.340334,0.011748,-2.465222,0.001421,-0.003009,0.001119,-0.973494,-0.011748,-0.228412,0.011686,-0.000170,0.001392,-49.645706,31.741638,46.808594,,,,,,
1484020769.584897,-1.340361,0.011753,-2.465195,0.001432,-0.004068,0.000066,-0.973500,-0.011752,-0.228385,0.011815,-0.000043,0.002616,-49.720337,31.816711,46.808105,,,,,,
1484020769.604886,-1.340383,0.011750,-2.465178,0.002499,-0.004058,0.000070,-0.973505,-0.011750,-0.228364,0.013285,0.001740,0.001359,-49.945343,31.817017,46.807800,,,,,,
1484020769.624906,-1.340412,0.011747,-2.465146,0.002499,-0.004056,0.000070,-0.973512,-0.011747,-0.228336,0.011430,-0.000201,0.002399,-49.646317,31.665894,46.359009,,,,,,
1484020769.644895,-1.340427,0.011744,-2.465132,0.002506,-0.005116,0.000084,-0.973515,-0.011744,-0.228321,0.013997,0.000453,-0.000805,-49.646317,31.665894,46.359009,,,,,,
1484020769.664914,-1.340428,0.011725,-2.465097,0.001429,-0.004063,0.001134,-0.973516,-0.011725,-0.228320,0.012914,0.001486,0.000033,-49.645828,31.741272,46.583618,,,,,,
1484020769.684904,-1.340441,0.011725,-2.465079,0.000369,-0.004069,-0.001002,-0.973518,-0.011725,-0.228308,0.011269,-0.000711,0.000693,-50.019958,31.892151,46.807312,,,,,,
1484020769.704923,-1.340417,0.011738,-2.465044,0.001424,-0.002997,0.000053,-0.973513,-0.011738,-0.228331,0.013262,0.001316,-0.000550,-49.720337,31.816711,46.808105,,,,,,
1484020769.724912,-1.340435,0.011770,-2.465020,0.000373,-0.005128,0.000078,-0.973516,-0.011770,-0.228314,0.011129,0.000020,0.001492,-49.345795,31.740967,46.659119,,,,,,
1484020769.744932,-1.340463,0.011818,-2.464997,0.001440,-0.005117,0.000080,-0.973522,-0.011818,-0.228286,0.011929,-0.000740,0.000762,-49.345795,31.740967,46.659119,,,,,,
1484020769.764921,-1.340403,0.011807,-2.464976,0.001440,-0.005114,0.000080,-0.973509,-0.011807,-0.228345,0.012968,0.000805,-0.001361,-49.646454,31.591614,46.809326,,,,,,
1484020769.784940,-1.340378,0.011822,-2.464949,0.002499,-0.004040,0.000069,-0.973503,-0.011822,-0.228369,0.011894,0.000149,-0.000406,-49.420380,31.816101,46.733643,,,,,,
1484020769.804929,-1.340412,0.011801,-2.464925,0.000371,-0.005120,0.001144,-0.973511,-0.011800,-0.228336,0.011780,0.000219,0.002842,-49.570450,31.816101,46.583374,,,,,,
1484020769.824918,-1.340443,0.011753,-2.464887,0.002514,-0.006160,0.000098,-0.973518,-0.011753,-0.228306,0.011223,0.001651,0.000950,-49.718735,32.190918,46.281311,,,,,,
1484020769.844938,-1.340439,0.011761,-2.464869,0.000366,-0.004053,0.000064,-0.973518,-0.011760,-0.228309,0.012901,-0.000020,-0.000344,-49.718735,32.190918,46.281311,,,,,,
1484020769.864927,-1.340462,0.011755,-2.464829,0.001433,-0.004043,0.000067,-0.973523,-0.011754,-0.228287,0.012097,-0.001063,0.000291,-49.944885,31.892212,46.957397,,,,,,
1484020769.884946,-1.340475,0.011785,-2.464813,0.002495,-0.002969,-0.001011,-0.973525,-0.011785,-0.228275,0.011596,0.000036,0.002582,-49.420227,31.816528,47.033630,,,,,,
1484020769.904935,-1.340479,0.011828,-2.464785,0.002506,-0.004028,-0.002064,-0.973526,-0.011828,-0.228270,0.013992,-0.000517,0.000426,-49.270126,31.890564,46.508423,,,,,,
1484020769.924955,-1.340495,0.011848,-2.464765,0.001441,-0.005099,0.000080,-0.973529,-0.011848,-0.228255,0.012943,-0.000100,0.002715,-49.795898,31.741272,46.433350,,,,,,
1484020769.944944,-1.340520,0.011850,-2.464724,0.001425,-0.002975,0.000052,-0.973535,-0.011850,-0.228231,0.011758,-0.000067,0.000936,-49.795898,31.741272,46.433350,,,,,,
1484020769.964963,-1.340486,0.011851,-2.464712,-0.000708,-0.002991,0.000046,-0.973527,-0.011850,-0.228263,0.011491,0.000162,0.000755,-49.568649,32.117065,47.181824,,,,,,
1484020769.984952,-1.340435,0.011868,-2.464694,0.002503,-0.004021,-0.000998,-0.973515,-0.011868,-0.228313,0.013493,0.000744,0.000271,-49.570786,31.741272,46.658752,,,,,,
1484020770.004972,-1.340481,0.011902,-2.464674,0.002515,-0.006143,0.000096,-0.973525,-0.011902,-0.228269,0.011733,0.000244,0.000821,-49.571808,31.590454,46.134460,,,,,,
1484020770.024961,-1.340475,0.011933,-2.464651,0.000375,-0.005098,0.000076,-0.973524,-0.011933,-0.228274,0.011747,-0.001540,-0.000821,-49.795181,31.817261,47.108032,,,,,,
1484020770.044980,-1.340500,0.011918,-2.464625,0.000370,-0.004034,-0.001004,-0.973530,-0.011917,-0.228250,0.013248,0.000916,0.002832,-49.795181,31.817261,47.108032,,,,,,
1484020770.064969,-1.340493,0.011928,-2.464603,0.000359,-0.002972,0.000048,-0.973528,-0.011928,-0.228256,0.013521,0.001552,0.001144,-49.345459,31.815796,46.583679,,,,,,
1484020770.084989,-1.340537,0.011919,-2.464587,0.001433,-0.004023,0.000065,-0.973538,-0.011919,-0.228214,0.013302,0.001131,0.000217,-49.120346,31.815796,46.809021,,,,,,
1484020770.104978,-1.340486,0.011930,-2.464556,0.002505,-0.005073,0.001149,-0.973526,-0.011930,-0.228263,0.012040,0.000852,-0.000557,-49.270340,31.816040,46.808777,,,,,,
1484020770.124998,-1.340480,0.011930,-2.464524,0.001444,-0.005078,-0.000987,-0.973525,-0.011930,-0.228269,0.012969,0.000211,-0.000887,-49.721130,31.666626,46.733887,,,,,,
1484020770.144987,-1.340486,0.011903,-2.464493,0.002503,-0.004005,-0.000997,-0.973527,-0.011902,-0.228263,0.011857,0.000855,-0.000176,-49.721130,31.666626,46.733887,,,,,,
1484020770.165006,-1.340484,0.011954,-2.464469,0.001437,-0.004013,-0.001001,-0.973526,-0.011954,-0.228265,0.011749,-0.002404,-0.000586,-49.345871,31.740723,46.509094,,,,,,
1484020770.184995,-1.340528,0.011987,-2.464436,0.000375,-0.005083,0.000076,-0.973535,-0.011987,-0.228222,0.014520,-0.000755,0.002285,-49.497253,31.441223,46.735352,,,,,,
1484020770.205015,-1.340563,0.011968,-2.464435,-0.000692,-0.005091,0.000074,-0.973543,-0.011968,-0.228189,0.011919,-0.000194,0.000375,-49.196472,31.590942,46.810059,,,,,,
1484020770.225004,-1.340544,0.011930,-2.464398,0.000375,-0.005079,0.000078,-0.973540,-0.011929,-0.228207,0.012739,0.002026,-0.000614,-49.646164,31.666382,46.658997,,,,,,
1484020770.245023,-1.340545,0.011890,-2.464380,0.001433,-0.004006,0.000067,-0.973540,-0.011890,-0.228206,0.010741,0.001453,0.001079,-49.646164,31.666382,46.658997,,,,,,
1484020770.265012,-1.340577,0.011897,-2.464360,0.000378,-0.005075,-0.000988,-0.973548,-0.011897,-0.228175,0.013403,0.000468,0.001460,-49.645447,31.816223,46.583252,,,,,,
1484020770.285001,-1.340602,0.011945,-2.464321,0.002508,-0.005056,0.000084,-0.973553,-0.011945,-0.228151,0.012295,-0.000506,0.001603,-49.421158,31.666016,46.659363,,,,,,
1484020770.305021,-1.340610,0.011996,-2.464290,0.002511,-0.005052,-0.000984,-0.973554,-0.011996,-0.228143,0.012174,-0.000058,0.000329,-49.721085,31.666748,46.808838,,,,,,
1484020770.325010,-1.340587,0.012002,-2.464286,0.000370,-0.004007,-0.001003,-0.973549,-0.012002,-0.228165,0.011406,0.000070,-0.000595,-49.570679,31.741577,46.883728,,,,,,
1484020770.345029,-1.340536,0.011990,-2.464252,0.002500,-0.003987,0.000070,-0.973537,-0.011989,-0.228214,0.012783,0.001278,-0.000622,-49.570679,31.741577,46.883728,,,,,,
1484020770.365018,-1.340555,0.011960,-2.464222,0.001436,-0.003994,-0.000999,-0.973542,-0.011960,-0.228197,0.011170,0.002911,0.001329,-49.419586,31.966248,46.807800,,,,,,
1484020770.385038,-1.340541,0.011962,-2.464198,0.000370,-0.004000,-0.001001,-0.973539,-0.011962,-0.228210,0.011075,0.000747,-0.000230,-49.194229,32.040955,46.807800,,,,,,
1484020770.405021,-1.340552,0.011946,-2.464176,0.000377,-0.005060,-0.000987,-0.973541,-0.011946,-0.228199,0.013718,0.000761,0.000096,-49.645828,31.741272,46.583618,,,,,,
1484020770.425040,-1.340600,0.011918,-2.464159,0.000374,-0.005060,0.000080,-0.973553,-0.011917,-0.228152,0.013042,0.001221,0.002658,-49.645218,31.816895,47.033264,,,,,,
1484020770.445029,-1.340539,0.011951,-2.464139,-0.000708,-0.002943,0.000049,-0.973538,-0.011950,-0.228212,0.011136,-0.000699,-0.001509,-49.645218,31.816895,47.033264,,,,,,
1484020770.465049,-1.340577,0.011928,-2.464109,0.001441,-0.005046,0.000083,-0.973547,-0.011928,-0.228175,0.012091,0.000880,0.000651,-49.795044,31.891602,46.657654,,,,,,
1484020770.485038,-1.340586,0.011950,-2.464109,0.001433,-0.003983,0.000069,-0.973549,-0.011950,-0.228166,0.013527,-0.000700,0.000398,-49.570602,31.741821,47.033752,,,,,,
1484020770.505057,-1.340602,0.011969,-2.464102,0.001426,-0.002919,0.000054,-0.973552,-0.011969,-0.228151,0.013362,0.000449,0.001725,-49.868988,32.042603,47.256775,,,,,,
1484020770.525046,-1.340554,0.011959,-2.464078,0.002497,-0.003970,0.001138,-0.973541,-0.011959,-0.228197,0.014221,0.000469,0.000384,-49.419479,31.966553,47.032837,,,,,,
1484020770.545066,-1.340517,0.011987,-2.464066,0.000370,-0.003984,-0.001001,-0.973533,-0.011987,-0.228234,0.012565,-0.000998,-0.001198,-49.419479,31.966553,47.032837,,,,,,
1484020770.565055,-1.340514,0.011987,-2.464034,0.001441,-0.005034,0.000083,-0.973532,-0.011986,-0.228236,0.013113,-0.000907,0.000377,-49.345200,31.890442,46.358337,,,,,,
1484020770.585075,-1.340492,0.011985,-2.464023,0.000367,-0.003980,0.000066,-0.973527,-0.011985,-0.228257,0.012361,-0.000161,0.000062,-49.494965,31.891357,46.808105,,,,,,
1484020770.605064,-1.340480,0.012004,-2.463992,0.001426,-0.002907,0.000054,-0.973524,-0.012004,-0.228269,0.013334,0.000163,-0.000796,-49.570007,31.891357,46.733032,,,,,,
1484020770.625083,-1.340497,0.011995,-2.463938,0.002511,-0.005018,-0.000981,-0.973528,-0.011995,-0.228253,0.011660,0.000398,0.000500,-49.795258,31.817017,46.958008,,,,,,
1484020770.645072,-1.340488,0.011971,-2.463934,0.000378,-0.005035,-0.000986,-0.973526,-0.011971,-0.228261,0.012055,0.001183,0.000280,-49.795258,31.817017,46.958008,,,,,,
1484020770.665092,-1.340498,0.011992,-2.463896,0.002508,-0.005015,0.000086,-0.973528,-0.011991,-0.228251,0.012408,-0.000994,0.000361,-49.572662,31.366272,46.660645,,,,,,
1484020770.685081,-1.340505,0.012002,-2.463861,0.003564,-0.003944,0.001142,-0.973530,-0.012002,-0.228244,0.011707,0.000558,-0.000866,-49.571579,31.591125,46.584473,,,,,,
1484020770.705100,-1.340462,0.011960,-2.463834,0.000367,-0.003967,0.000067,-0.973520,-0.011960,-0.228287,0.012049,0.001233,-0.000305,-49.945221,31.817322,47.032837,,,,,,
1484020770.725089,-1.340497,0.011932,-2.463793,0.001435,-0.005020,0.002218,-0.973529,-0.011931,-0.228252,0.011493,0.000564,0.000393,-49.571655,31.590881,46.434448,,,,,,
1484020770.745078,-1.340479,0.011900,-2.463767,0.000366,-0.003964,0.000069,-0.973525,-0.011899,-0.228271,0.012435,0.001844,0.000350,-49.571655,31.590881,46.434448,,,,,,
1484020770.765098,-1.340506,0.011956,-2.463735,0.002511,-0.005004,-0.000979,-0.973531,-0.011956,-0.228244,0.011952,-0.002998,0.001087,-49.571609,31.591003,46.509460,,,,,,
1484020770.785087,-1.340514,0.011943,-2.463694,0.001441,-0.005012,0.000085,-0.973533,-0.011943,-0.228236,0.011298,0.000240,0.000102,-49.947586,31.367065,46.809998,,,,,,
1484020770.805106,-1.340549,0.011935,-2.463661,0.002504,-0.005003,0.001155,-0.973541,-0.011935,-0.228202,0.012344,0.001009,0.001640,-49.495270,31.816528,46.958496,,,,,,
1484020770.825095,-1.340499,0.011917,-2.463644,0.000367,-0.003956,0.000068,-0.973529,-0.011917,-0.228251,0.012729,-0.000397,-0.000845,-49.572372,31.440979,46.510254,,,,,,
1484020770.845115,-1.340526,0.011966,-2.463622,-0.000700,-0.003964,0.000065,-0.973535,-0.011966,-0.228225,0.012781,-0.001279,0.001311,-49.572372,31.440979,46.510254,,,,,,
1484020770.865104,-1.340512,0.011932,-2.463590,0.002508,-0.004995,0.000088,-0.973532,-0.011932,-0.228238,0.012961,0.000320,-0.000141,-49.646042,31.666687,46.883972,,,,,,
1484020770.885123,-1.340466,0.011975,-2.463560,0.001434,-0.003940,0.000071,-0.973521,-0.011975,-0.228283,0.013316,-0.000965,-0.000050,-49.719223,32.041748,46.807007,,,,,,
1484020770.905112,-1.340465,0.011977,-2.463537,0.001434,-0.003938,0.000071,-0.973521,-0.011977,-0.228284,0.012171,0.000136,-0.000155,-49.571167,31.666260,46.659119,,,,,,
1484020770.925132,-1.340494,0.011951,-2.463508,0.001430,-0.003938,0.001138,-0.973528,-0.011950,-0.228256,0.012682,0.000003,0.001358,-49.196579,31.590576,46.585083,,,,,,
1484020770.945121,-1.340488,0.011966,-2.463484,0.001434,-0.003935,0.000071,-0.973526,-0.011966,-0.228262,0.011475,-0.001600,0.000753,-49.196579,31.590576,46.585083,,,,,,
1484020770.965140,-1.340445,0.011896,-2.463475,0.000367,-0.003941,0.000069,-0.973517,-0.011896,-0.228303,0.014182,0.002298,-0.000655,-49.421341,31.591553,47.034729,,,,,,
1484020770.985129,-1.340418,0.011864,-2.463453,0.002492,-0.002858,0.000062,-0.973512,-0.011864,-0.228330,0.013245,0.000283,0.000058,-49.120346,31.815796,46.809021,,,,,,
1484020771.005149,-1.340404,0.011875,-2.463411,0.000374,-0.004998,0.000084,-0.973508,-0.011875,-0.228343,0.011716,-0.000057,-0.000432,-49.420715,31.741272,46.808960,,,,,,
1484020771.025138,-1.340448,0.011824,-2.463389,0.001425,-0.002864,0.000060,-0.973519,-0.011824,-0.228301,0.012291,0.001326,0.003692,-49.869186,32.041992,46.881775,,,,,,
1484020771.045158,-1.340467,0.011872,-2.463372,0.000374,-0.004995,0.000084,-0.973523,-0.011872,-0.228282,0.014096,-0.001571,0.000392,-49.869186,32.041992,46.881775,,,,,,
1484020771.065147,-1.340541,0.011840,-2.463350,0.001433,-0.003924,0.000074,-0.973540,-0.011840,-0.228210,0.011763,0.001174,0.002410,-49.646011,31.666809,46.958984,,,,,,
1484020771.085166,-1.340529,0.011870,-2.463344,0.000378,-0.004991,-0.000982,-0.973537,-0.011870,-0.228222,0.012477,-0.000535,-0.000294,-49.345337,31.816162,46.808655,,,,,,
1484020771.105155,-1.340564,0.011907,-2.463303,0.003590,-0.007086,0.000121,-0.973544,-0.011906,-0.228187,0.013889,-0.000774,0.000175,-49.570862,31.741028,46.508728,,,,,,
1484020771.125175,-1.340563,0.011843,-2.463282,0.000363,-0.003928,0.001138,-0.973545,-0.011842,-0.228189,0.012577,0.001405,0.000406,-49.721466,31.591736,46.809265,,,,,,
1484020771.145164,-1.340572,0.011840,-2.463259,0.000367,-0.003926,0.000071,-0.973547,-0.011840,-0.228180,0.014532,0.000579,0.000275,-49.721466,31.591736,46.809265,,,,,,
1484020771.165183,-1.340545,0.011867,-2.463249,0.000367,-0.003923,0.000071,-0.973540,-0.011867,-0.228206,0.013778,0.000728,0.000774,-49.268814,32.116150,46.882324,,,,,,
1484020771.185172,-1.340521,0.011847,-2.463234,0.001441,-0.004973,0.000088,-0.973535,-0.011847,-0.228230,0.012430,-0.000345,-0.000530,-49.195572,31.815186,46.358948,,,,,,
1484020771.205161,-1.340525,0.011891,-2.463213,0.002500,-0.003900,0.000076,-0.973536,-0.011891,-0.228225,0.012156,-0.000240,0.001434,-49.422745,31.365784,46.510803,,,,,,
1484020771.225181,-1.340562,0.011936,-2.463201,0.000371,-0.003916,-0.000997,-0.973544,-0.011936,-0.228190,0.012652,-0.000302,-0.000097,-49.795929,31.667297,47.108826,,,,,,
1484020771.245170,-1.340534,0.011926,-2.463167,0.001439,-0.004968,0.001153,-0.973537,-0.011926,-0.228217,0.012523,0.000070,-0.000436,-49.795929,31.667297,47.108826,,,,,,
1484020771.265189,-1.340517,0.011917,-2.463143,0.001434,-0.003903,0.000073,-0.973534,-0.011917,-0.228233,0.011833,-0.000320,-0.000389,-49.271057,31.666138,46.884583,,,,,,
1484020771.285178,-1.340481,0.011898,-2.463115,0.002500,-0.003891,0.000076,-0.973526,-0.011898,-0.228268,0.012008,0.001186,0.000042,-49.195312,31.815979,46.883911,,,,,,
1484020771.305198,-1.340447,0.011901,-2.463087,0.001442,-0.004959,0.000088,-0.973518,-0.011901,-0.228302,0.011970,-0.001008,-0.001938,-49.571579,31.591125,46.584473,,,,,,
1484020771.325187,-1.340431,0.011956,-2.463072,0.001434,-0.003895,0.000073,-0.973513,-0.011955,-0.228317,0.011676,-0.001472,0.000350,-49.796539,31.591614,46.659180,,,,,,
1484020771.345206,-1.340361,0.011943,-2.463063,0.000368,-0.003901,0.000070,-0.973498,-0.011943,-0.228385,0.011538,0.001140,-0.002495,-49.796539,31.591614,46.659180,,,,,,
1484020771.365195,-1.340326,0.011912,-2.463036,0.001434,-0.003889,0.000073,-0.973490,-0.011912,-0.228420,0.010584,0.000865,-0.000157,-49.870346,31.816895,46.807861,,,,,,
1484020771.385215,-1.340347,0.011938,-2.463013,0.000368,-0.003897,0.000070,-0.973494,-0.011937,-0.228399,0.011306,-0.000666,0.002248,-49.797333,31.441467,46.584900,,,,,,
1484020771.405178,-1.340384,0.011965,-2.462982,0.002506,-0.004939,0.001155,-0.973503,-0.011965,-0.228363,0.012474,-0.000685,0.000885,-49.570602,31.741821,47.033752,,,,,,
1484020771.425197,-1.340374,0.011984,-2.462940,0.003571,-0.003864,-0.000989,-0.973500,-0.011984,-0.228373,0.011601,-0.000482,0.000849,-49.495300,31.816406,46.883484,,,,,,
1484020771.445186,-1.340374,0.011977,-2.462923,0.001439,-0.004945,0.001153,-0.973500,-0.011976,-0.228373,0.011891,0.000944,0.001780,-49.495300,31.816406,46.883484,,,,,,
1484020771.465206,-1.340406,0.011963,-2.462911,0.000376,-0.004952,0.000083,-0.973508,-0.011963,-0.228341,0.012921,-0.000290,0.002206,-49.421463,31.591248,46.809692,,,,,,
1484020771.485195,-1.340331,0.012002,-2.462872,0.001438,-0.003876,-0.000995,-0.973490,-0.012001,-0.228414,0.013682,-0.000038,-0.001185,-49.720749,31.741638,46.733521,,,,,,
1484020771.505215,-1.340307,0.012005,-2.462851,-0.000691,-0.004954,0.000080,-0.973485,-0.012005,-0.228437,0.012639,-0.000798,-0.000994,-50.021378,31.592346,46.958801,,,,,,
1484020771.525204,-1.340329,0.012042,-2.462810,0.002491,-0.002803,0.001127,-0.973489,-0.012042,-0.228416,0.013025,-0.000043,0.001731,-49.570633,31.741699,46.958740,,,,,,
1484020771.545223,-1.340359,0.012061,-2.462786,0.001440,-0.004934,0.001152,-0.973496,-0.012061,-0.228386,0.011719,-0.000054,0.002678,-49.570633,31.741699,46.958740,,,,,,
1484020771.565212,-1.340382,0.012068,-2.462757,0.001454,-0.005991,-0.000967,-0.973501,-0.012068,-0.228364,0.013540,-0.000200,0.001847,-49.346848,31.516174,46.810181,,,,,,
1484020771.585232,-1.340421,0.012062,-2.462722,0.001432,-0.003869,0.001138,-0.973510,-0.012062,-0.228326,0.014724,0.000251,0.002374,-49.721420,31.591797,46.884277,,,,,,
1484020771.605221,-1.340429,0.012021,-2.462684,0.002509,-0.004918,0.000089,-0.973512,-0.012021,-0.228318,0.011324,0.002225,0.000062,-49.420181,31.816650,47.108643,,,,,,
1484020771.625210,-1.340452,0.011978,-2.462654,-0.000694,-0.004946,0.001148,-0.973518,-0.011978,-0.228297,0.010719,0.001586,0.001871,-49.646378,31.591797,46.959351,,,,,,
1484020771.645229,-1.340440,0.012010,-2.462636,0.001443,-0.004923,0.000087,-0.973515,-0.012010,-0.228308,0.012532,-0.001158,0.000876,-49.646378,31.591797,46.959351,,,,,,
1484020771.665218,-1.340436,0.012005,-2.462604,0.002501,-0.003851,0.000076,-0.973514,-0.012005,-0.228312,0.011600,0.001064,0.000834,-49.647705,31.366272,46.585510,,,,,,
1484020771.685238,-1.340460,0.012014,-2.462588,0.000373,-0.004930,0.001150,-0.973519,-0.012014,-0.228288,0.013681,-0.000651,0.001497,-49.871460,31.591919,46.809021,,,,,,
1484020771.705227,-1.340478,0.011974,-2.462562,0.000362,-0.003868,0.002203,-0.973524,-0.011974,-0.228271,0.013563,0.001552,0.000381,-49.121704,31.516235,47.110596,,,,,,
1484020771.725246,-1.340443,0.011982,-2.462540,0.002501,-0.003845,0.000076,-0.973516,-0.011982,-0.228305,0.013280,0.000355,-0.001218,-49.871429,31.591980,46.884033,,,,,,
1484020771.745235,-1.340415,0.011972,-2.462507,0.001435,-0.003852,0.000073,-0.973510,-0.011971,-0.228332,0.012648,0.000314,0.001129,-49.871429,31.591980,46.884033,,,,,,
1484020771.765255,-1.340370,0.012000,-2.462491,0.000368,-0.003858,0.000070,-0.973499,-0.012000,-0.228376,0.013462,-0.000680,-0.001238,-49.646164,31.666382,46.658997,,,,,,
1484020771.785244,-1.340372,0.012039,-2.462488,0.000377,-0.004917,0.000083,-0.973499,-0.012039,-0.228374,0.011081,-0.000992,0.000362,-50.096466,31.592285,46.808655,,,,,,
1484020771.805263,-1.340390,0.012035,-2.462467,0.001435,-0.003845,0.000072,-0.973503,-0.012034,-0.228357,0.011223,-0.000219,0.000695,-49.870346,31.816895,46.807861,,,,,,
1484020771.825252,-1.340361,0.012067,-2.462467,-0.000693,-0.004923,0.001146,-0.973496,-0.012066,-0.228385,0.013642,0.000210,-0.000100,-49.647293,31.441345,46.660156,,,,,,
1484020771.845272,-1.340353,0.012053,-2.462432,0.001431,-0.002778,-0.001009,-0.973495,-0.012053,-0.228393,0.013091,0.000807,-0.000718,-49.647293,31.441345,46.660156,,,,,,
1484020771.865261,-1.340352,0.012046,-2.462399,0.001432,-0.003839,0.001139,-0.973494,-0.012045,-0.228394,0.012923,-0.000833,0.000840,-49.272079,31.515320,46.360352,,,,,,
1484020771.885280,-1.340371,0.012054,-2.462362,0.002510,-0.004889,0.000089,-0.973499,-0.012053,-0.228375,0.011615,-0.000016,-0.000110,-49.796692,31.591125,46.359192,,,,,,
1484020771.905269,-1.340388,0.012074,-2.462339,0.001429,-0.003837,0.002205,-0.973502,-0.012073,-0.228359,0.012473,-0.000897,0.000087,-49.496964,31.515991,46.584961,,,,,,
1484020771.925289,-1.340387,0.012052,-2.462305,0.000369,-0.003842,0.000070,-0.973502,-0.012052,-0.228360,0.012427,-0.000552,-0.000660,-49.497406,31.440735,46.435303,,,,,,
1484020771.945278,-1.340356,0.012081,-2.462275,0.002501,-0.002757,-0.002072,-0.973495,-0.012080,-0.228389,0.012557,0.000468,-0.000111,-49.497406,31.440735,46.435303,,,,,,
1484020771.965298,-1.340300,0.012080,-2.462232,0.002510,-0.004879,0.000089,-0.973482,-0.012079,-0.228444,0.013262,0.001688,-0.000286,-49.646347,31.591919,47.034363,,,,,,
1484020771.985287,-1.340282,0.012018,-2.462206,0.000387,-0.005955,-0.000967,-0.973479,-0.012018,-0.228461,0.012618,0.002099,-0.000771,-50.022659,31.366943,46.659973,,,,,,
1484020772.005306,-1.340294,0.012024,-2.462194,0.000369,-0.003831,0.000071,-0.973481,-0.012024,-0.228450,0.012742,-0.000381,0.001186,-49.570297,31.816528,46.883362,,,,,,
1484020772.025295,-1.340293,0.012026,-2.462184,0.000369,-0.003830,0.000071,-0.973481,-0.012026,-0.228451,0.011323,0.000673,0.002361,-49.196625,31.590454,46.510071,,,,,,
1484020772.045315,-1.340258,0.012020,-2.462161,0.000369,-0.003827,0.000071,-0.973473,-0.012019,-0.228485,0.013772,0.000346,-0.000046,-49.196625,31.590454,46.510071,,,,,,
1484020772.065304,-1.340229,0.012010,-2.462137,0.002502,-0.003805,0.000077,-0.973467,-0.012010,-0.228514,0.011324,-0.001311,0.001203,-49.946915,31.516785,46.659302,,,,,,
1484020772.085293,-1.340227,0.011996,-2.462108,0.002497,-0.002741,-0.001003,-0.973466,-0.011995,-0.228516,0.011705,0.000978,0.001449,-49.570221,31.816772,47.033386,,,,,,
1484020772.105312,-1.340233,0.011948,-2.462095,0.000365,-0.003822,0.001140,-0.973468,-0.011948,-0.228509,0.013538,0.002182,0.002054,-49.646088,31.666626,46.808960,,,,,,
1484020772.125301,-1.340296,0.011981,-2.462066,0.002499,-0.003802,0.001145,-0.973482,-0.011981,-0.228448,0.011431,-0.001782,0.001184,-49.346497,31.591064,46.734863,,,,,,
1484020772.145321,-1.340276,0.011998,-2.462032,0.001435,-0.003808,0.000075,-0.973478,-0.011998,-0.228467,0.012388,-0.000011,0.000486,-49.346497,31.591064,46.734863,,,,,,
1484020772.165310,-1.340268,0.011976,-2.462020,0.000358,-0.002755,0.001125,-0.973476,-0.011976,-0.228475,0.012249,0.000608,0.000616,-49.722595,31.366760,46.810364,,,,,,
1484020772.185329,-1.340242,0.012001,-2.461993,0.001432,-0.003805,0.001141,-0.973470,-0.012001,-0.228501,0.011205,-0.001488,-0.001647,-49.646454,31.591614,46.809326,,,,,,
1484020772.205318,-1.340183,0.012002,-2.461965,0.001439,-0.003799,-0.000992,-0.973456,-0.012002,-0.228558,0.012259,-0.000388,-0.001819,-49.871201,31.666565,46.583679,,,,,,
1484020772.225338,-1.340187,0.011972,-2.461927,0.001438,-0.003798,-0.000991,-0.973458,-0.011971,-0.228554,0.011696,0.001702,-0.000480,-49.796844,31.516846,46.809509,,,,,,
1484020772.245327,-1.340181,0.011967,-2.461877,0.002499,-0.003788,0.001145,-0.973456,-0.011967,-0.228561,0.012137,-0.000637,0.000671,-49.796844,31.516846,46.809509,,,,,,
1484020772.265346,-1.340145,0.011986,-2.461853,0.001428,-0.002733,0.000061,-0.973448,-0.011986,-0.228595,0.011915,0.000100,-0.000043,-50.019852,31.892456,47.032349,,,,,,
1484020772.285335,-1.340100,0.011958,-2.461822,0.002513,-0.004842,-0.000974,-0.973438,-0.011957,-0.228639,0.010150,0.000239,-0.001280,-49.496460,31.591370,46.809570,,,,,,
1484020772.305355,-1.340120,0.011969,-2.461791,0.001435,-0.003790,0.000076,-0.973442,-0.011968,-0.228620,0.012764,0.000906,0.001569,-49.347412,31.440552,46.435547,,,,,,
1484020772.325344,-1.340103,0.011995,-2.461775,0.001439,-0.003786,-0.000991,-0.973438,-0.011995,-0.228636,0.012028,-0.001204,-0.000261,-49.647324,31.441223,46.585144,,,,,,
1484020772.345363,-1.340093,0.011995,-2.461748,0.002502,-0.003776,0.000079,-0.973436,-0.011995,-0.228646,0.011705,0.000566,0.000313,-49.647324,31.441223,46.585144,,,,,,
1484020772.365352,-1.340160,0.011999,-2.461723,0.001450,-0.004844,-0.002043,-0.973451,-0.011999,-0.228581,0.012300,0.000295,0.001820,-49.571503,31.591370,46.734497,,,,,,
1484020772.385372,-1.340134,0.011976,-2.461696,0.001428,-0.002721,0.000062,-0.973445,-0.011976,-0.228606,0.012706,0.000578,-0.001543,-49.271469,31.591064,46.809937,,,,,,
1484020772.405361,-1.340143,0.011979,-2.461671,0.001432,-0.003782,0.001143,-0.973447,-0.011979,-0.228597,0.012128,0.000473,0.001684,-49.797409,31.441223,46.434875,,,,,,
1484020772.425383,-1.340140,0.011998,-2.461645,0.000377,-0.004849,0.000087,-0.973446,-0.011998,-0.228600,0.010815,-0.000514,0.001412,-49.345596,31.741516,47.034119,,,,,,
1484020772.445372,-1.340168,0.012012,-2.461604,0.001433,-0.003778,0.001142,-0.973453,-0.012012,-0.228572,0.012119,0.000674,0.001613,-49.345596,31.741516,47.034119,,,,,,
1484020772.465391,-1.340181,0.011963,-2.461578,0.000361,-0.002723,0.000059,-0.973456,-0.011962,-0.228561,0.011390,0.000122,0.000213,-49.421082,31.666260,46.809326,,,,,,
1484020772.485380,-1.340161,0.011940,-2.461571,0.000369,-0.003783,0.000074,-0.973452,-0.011939,-0.228580,0.011553,0.000190,0.001087,-49.721344,31.592041,47.034302,,,,,,
1484020772.505400,-1.340141,0.011962,-2.461539,0.001436,-0.003771,0.000077,-0.973447,-0.011962,-0.228599,0.012357,-0.000123,-0.000786,-49.571274,31.665894,46.434082,,,,,,
1484020772.525389,-1.340110,0.011928,-2.461512,0.001432,-0.003769,0.001144,-0.973440,-0.011928,-0.228630,0.012549,0.001033,-0.001686,-49.872223,31.441895,46.809753,,,,,,
1484020772.545378,-1.340090,0.011953,-2.461480,0.002494,-0.002695,0.000066,-0.973435,-0.011952,-0.228649,0.012178,-0.000682,-0.001026,-49.872223,31.441895,46.809753,,,,,,
1484020772.565397,-1.340087,0.011906,-2.461472,0.000369,-0.003773,0.000075,-0.973435,-0.011906,-0.228652,0.012376,0.001774,0.000869,-49.421463,31.591248,46.809692,,,,,,
1484020772.585386,-1.340053,0.011895,-2.461456,0.001439,-0.003760,-0.000989,-0.973428,-0.011895,-0.228685,0.011880,0.001091,-0.000411,-49.647064,31.515869,46.359802,,,,,,
1484020772.605406,-1.340057,0.011834,-2.461441,0.003579,-0.004801,-0.000967,-0.973429,-0.011834,-0.228681,0.010020,0.002908,0.000273,-49.796387,31.592041,46.959167,,,,,,
1484020772.625395,-1.340032,0.011900,-2.461419,0.003572,-0.003737,-0.000983,-0.973423,-0.011900,-0.228705,0.012241,-0.000750,-0.000772,-49.720978,31.667053,47.033875,,,,,,
1484020772.645414,-1.340094,0.011918,-2.461378,0.001439,-0.003755,-0.000989,-0.973437,-0.011917,-0.228645,0.011828,-0.000274,0.002068,-49.720978,31.667053,47.033875,,,,,,
1484020772.665403,-1.340089,0.011895,-2.461353,0.001438,-0.003753,-0.000988,-0.973436,-0.011895,-0.228650,0.012300,0.002938,0.000912,-49.496841,31.516357,46.809937,,,,,,
1484020772.685423,-1.340096,0.011908,-2.461324,0.001446,-0.004812,-0.000973,-0.973438,-0.011908,-0.228643,0.011813,0.001135,0.000356,-49.497330,31.440979,46.585327,,,,,,
1484020772.705412,-1.340099,0.011919,-2.461294,0.001438,-0.003749,-0.000987,-0.973438,-0.011919,-0.228640,0.014286,0.000155,0.001116,-49.646378,31.591797,46.959351,,,,,,
1484020772.725431,-1.340085,0.011941,-2.461257,0.002502,-0.003739,0.000082,-0.973435,-0.011941,-0.228654,0.013123,-0.000876,0.000458,-49.571457,31.591492,46.809448,,,,,,
1484020772.745420,-1.340147,0.011921,-2.461214,0.003579,-0.004789,-0.000967,-0.973449,-0.011921,-0.228593,0.013610,0.000797,0.002336,-49.571457,31.591492,46.809448,,,,,,
1484020772.765440,-1.340130,0.011908,-2.461191,0.000376,-0.004815,0.000091,-0.973445,-0.011908,-0.228610,0.010707,0.000357,-0.001111,-49.646088,31.666626,46.808960,,,,,,
1484020772.785429,-1.340078,0.011860,-2.461169,0.000354,-0.002691,0.002197,-0.973434,-0.011860,-0.228661,0.011291,0.000736,-0.001625,-49.721542,31.591492,46.659302,,,,,,
1484020772.805448,-1.340092,0.011861,-2.461134,0.001427,-0.002678,0.000066,-0.973437,-0.011861,-0.228647,0.011813,0.000676,0.000894,-49.871307,31.592346,47.109070,,,,,,
1484020772.825437,-1.340082,0.011916,-2.461095,0.002502,-0.003728,0.000082,-0.973434,-0.011916,-0.228657,0.012146,-0.001313,-0.000118,-49.569595,31.966492,46.807617,,,,,,
1484020772.845457,-1.340089,0.011894,-2.461066,0.001440,-0.004799,0.001160,-0.973436,-0.011894,-0.228650,0.012270,0.000694,0.000470,-49.569595,31.966492,46.807617,,,,,,
1484020772.865446,-1.340097,0.011926,-2.461039,0.002502,-0.003725,0.000082,-0.973437,-0.011926,-0.228643,0.013324,-0.001166,0.001241,-49.420303,31.816284,46.883606,,,,,,
1484020772.885466,-1.340108,0.011932,-2.460995,0.001436,-0.003732,0.000079,-0.973440,-0.011932,-0.228632,0.013097,0.001190,0.000345,-49.796463,31.591858,46.809143,,,,,,
1484020772.905455,-1.340104,0.011939,-2.460976,0.001428,-0.002669,0.000064,-0.973439,-0.011938,-0.228635,0.012639,0.000113,0.000761,-49.420258,31.816406,46.958618,,,,,,
1484020772.925474,-1.340049,0.011987,-2.460971,-0.000705,-0.002684,0.000058,-0.973426,-0.011987,-0.228688,0.013648,-0.001121,-0.000255,-49.346542,31.590942,46.659851,,,,,,
