timestamp(unix),attitude_roll(radians),attitude_pitch(radians),attitude_yaw(radians),rotation_rate_x(radians/s),rotation_rate_y(radians/s),rotation_rate_z(radians/s),gravity_x(G),gravity_y(G),gravity_z(G),user_acc_x(G),user_acc_y(G),user_acc_z(G),magnetic_field_x(microteslas),magnetic_field_y(microteslas),magnetic_field_z(microteslas),latitude(degree),longitude(degree),altitude(meter),speed(m/s),course(degree),timestamp(unix)
1484030198.224612,0.026611,0.760923,-0.850810,0.184945,1.275632,0.631134,0.019269,-0.689590,-0.723944,-0.011518,-0.026429,0.073324,13.512878,21.846069,12.977844,,,,,,
,,,,,,,,,,,,,,,,33.759128,-118.389371,310.551147,0.000000,-1.000000,1484030198.195164
,,,,,,,,,,,,,,,,33.759128,-118.389371,310.551147,0.000000,-1.000000,1484030198.008693
1484030198.244601,0.040347,0.765234,-0.831569,0.213558,1.405297,0.732954,0.029091,-0.692706,-0.720633,-0.021919,0.033481,0.065375,13.512878,21.846069,12.977844,,,,,,
1484030198.264621,0.057347,0.771401,-0.811265,0.311868,1.664102,0.754331,0.041091,-0.697141,-0.715756,-0.054016,0.046689,0.102307,14.032181,20.720154,12.834229,,,,,,
1484030198.284610,0.076016,0.780392,-0.790157,0.478111,1.662315,0.811360,0.053968,-0.703558,-0.708586,-0.083905,0.064352,0.012434,14.625671,19.222168,14.792664,,,,,,
1484030198.304629,0.093549,0.792973,-0.768574,0.581604,1.662166,0.803125,0.065550,-0.712443,-0.698662,-0.125105,0.112452,-0.057106,16.117722,17.570801,15.403198,,,,,,
1484030198.324618,0.111897,0.805010,-0.749906,0.523466,1.511071,0.639643,0.077394,-0.720837,-0.688770,-0.058809,0.082440,-0.151684,15.961624,16.296875,15.934204,,,,,,
1484030198.344638,0.127874,0.817437,-0.736919,0.593771,1.165794,0.447109,0.087239,-0.729395,-0.678507,-0.018498,0.057062,-0.233572,15.961624,16.296875,15.934204,,,,,,
1484030198.364627,0.150021,0.830907,-0.731737,0.687401,1.474784,0.128631,0.100766,-0.738543,-0.666633,-0.037778,0.055743,-0.139809,16.479996,14.872559,16.917175,,,,,,
1484030198.384646,0.190435,0.847618,-0.738436,1.002826,1.926874,-0.159115,0.125264,-0.749706,-0.649807,0.026927,0.040752,-0.105930,16.999298,13.672668,17.523926,,,,,,
1484030198.404635,0.241527,0.869338,-0.749676,1.165345,2.270028,-0.057613,0.154354,-0.763902,-0.626601,0.033207,-0.005797,-0.106188,18.042664,12.099854,20.008362,,,,,,
1484030198.424655,0.294354,0.892449,-0.754257,1.128756,2.600566,0.310135,0.182054,-0.778611,-0.600518,0.035064,-0.016922,-0.058280,18.713150,10.977173,22.190002,,,,,,
1484030198.444644,0.347029,0.915298,-0.751131,1.118275,2.633176,0.524057,0.207313,-0.792744,-0.573217,0.008156,0.012288,-0.064737,18.713150,10.977173,22.190002,,,,,,
1484030198.464664,0.382400,0.944806,-0.751623,1.433832,1.374836,0.452072,0.218628,-0.810383,-0.543582,0.043686,0.053974,-0.130155,19.534760,10.079102,24.370728,,,,,,
1484030198.484653,0.403102,0.974987,-0.751688,1.397690,0.802043,0.740086,0.220135,-0.827695,-0.516199,0.045566,-0.097278,-0.133261,20.055527,9.031494,26.401672,,,,,,
1484030198.504647,0.390674,1.009982,-0.733133,1.419397,-0.255769,1.416544,0.202544,-0.846822,-0.491801,0.026246,-0.116816,-0.122610,19.821091,6.934937,28.511902,,,,,,
1484030198.524637,0.334647,1.046559,-0.687421,1.185331,-1.129874,1.924510,0.164399,-0.865706,-0.472785,0.035094,-0.106050,-0.049004,18.613617,5.362915,29.267944,,,,,,
1484030198.544657,0.250603,1.075717,-0.617347,0.706392,-1.056737,2.102422,0.117819,-0.879931,-0.460261,-0.021369,-0.002317,0.041545,18.613617,5.362915,29.267944,,,,,,
1484030198.564646,0.158544,1.091311,-0.533930,0.160092,-0.877832,2.076084,0.072834,-0.887233,-0.455536,-0.083896,-0.023534,0.044358,18.006042,3.863586,29.124512,,,,,,
1484030198.584665,0.048367,1.090951,-0.435840,-0.515534,-1.545445,2.422189,0.022320,-0.887066,-0.461103,-0.320232,-0.071598,-0.124896,15.751373,2.966370,28.750610,,,,,,
1484030198.604654,-0.106761,1.075377,-0.317421,-0.700611,-3.182511,3.038551,-0.050658,-0.879770,-0.472694,-0.551561,-0.343940,-0.363106,12.887970,0.492554,26.658691,,,,,,
1484030198.624674,-0.300366,1.051089,-0.190723,-0.509600,-4.630208,3.343096,-0.146937,-0.867964,-0.474392,-0.585913,-0.311479,-0.386326,9.209503,-0.029480,24.930725,,,,,,
1484030198.644663,-0.493096,1.019866,-0.083260,-0.371958,-5.191235,2.920036,-0.247792,-0.852038,-0.461118,-0.676815,-0.152219,-0.241457,9.209503,-0.029480,24.930725,,,,,,
1484030198.664681,-0.646242,0.991589,-0.019512,-0.165277,-4.780542,1.649131,-0.329615,-0.836897,-0.436986,-0.804738,-0.115435,-0.298029,5.614090,1.023865,23.570129,,,,,,
1484030198.684670,-0.742876,0.989673,-0.003983,0.439388,-3.763665,-0.426491,-0.371324,-0.835846,-0.404326,-0.825164,-0.143417,-0.448579,2.165466,1.402527,22.588074,,,,,,
1484030198.704690,-0.780657,1.028702,-0.025733,1.350572,-2.193090,-2.557650,-0.363085,-0.856630,-0.366544,-0.684355,-0.088896,-0.609927,-0.306824,2.005310,21.981323,,,,,,
1484030198.724679,-0.752273,1.110543,-0.081760,2.427045,-0.348298,-4.631180,-0.303505,-0.895940,-0.324309,-0.524315,-0.055110,-0.652559,1.418045,1.854553,23.184692,,,,,,
1484030198.744699,-0.592754,1.234109,-0.231499,3.298609,1.965373,-7.100828,-0.184556,-0.943854,-0.274004,-0.343078,0.074546,-0.583433,1.418045,1.854553,23.184692,,,,,,
1484030198.764688,-0.007065,1.362684,-0.763626,4.212837,4.542624,-9.501325,-0.001460,-0.978423,-0.206608,-0.062642,0.289031,-0.500606,6.063721,0.800476,25.071899,,,,,,
1484030198.784708,1.169016,1.330395,-1.844427,5.768702,6.557446,-10.720334,0.219132,-0.971243,-0.093108,0.168975,0.504705,-0.332353,12.144058,1.546143,28.302246,,,,,,
1484030198.804697,1.767184,1.130568,-2.315554,7.360235,7.956265,-10.239450,0.417955,-0.904654,0.083153,0.210952,0.806296,-0.110054,18.698563,6.722229,35.561218,,,,,,
1484030198.824716,2.057379,0.901861,-2.480147,7.997543,7.106815,-8.693658,0.548174,-0.784482,0.289988,0.048979,0.916395,0.057409,23.183853,31.425720,59.069458,,,,,,
1484030198.844705,2.229260,0.695883,-2.536306,6.683691,6.226364,-7.000516,0.607032,-0.641063,0.469628,-0.033286,0.833461,0.190193,23.183853,31.425720,59.069458,,,,,,
1484030198.864694,2.344118,0.534061,-2.548423,5.148866,4.817162,-5.027940,0.615946,-0.509033,0.601246,-0.127878,0.931335,0.108258,21.167892,47.120422,70.237915,,,,,,
1484030198.884714,2.418889,0.425507,-2.561937,3.932086,2.548848,-2.087384,0.602437,-0.412783,0.683140,0.042552,1.048174,0.091884,16.819183,61.465759,79.384644,,,,,,
1484030198.904703,2.452630,0.387109,-2.619717,2.638736,-0.671030,2.739587,0.588695,-0.377513,0.714788,0.446003,1.114238,0.346156,12.895889,71.230225,85.105042,,,,,,
1484030198.924722,2.450703,0.442726,-2.735768,0.294909,-3.357674,7.622601,0.575787,-0.428404,0.696376,0.607838,1.300017,0.646474,11.795227,75.958984,86.504700,,,,,,
1484030198.944711,2.436622,0.584389,-2.881360,-2.255259,-4.591615,10.190434,0.540474,-0.551690,0.635238,0.475411,1.550118,0.662934,11.795227,75.958984,86.504700,,,,,,
1484030198.964731,2.436585,0.769293,-3.027869,-3.897537,-4.394811,10.288713,0.465553,-0.695628,0.547140,0.368217,1.560160,0.634913,17.777924,58.534485,76.175842,,,,,,
1484030198.984720,2.472802,0.968287,3.109097,-5.098310,-3.399599,9.895556,0.351383,-0.823916,0.444627,0.510876,1.332690,0.585006,20.769867,42.767334,67.709167,,,,,,
1484030199.004740,2.599634,1.175378,2.901691,-5.956393,-2.430716,10.181016,0.198689,-0.922835,0.329996,0.623958,1.178908,0.413321,20.921158,28.805359,59.904175,,,,,,
1484030199.024729,3.117883,1.364737,2.324883,-6.551371,-1.513196,11.067335,0.004851,-0.978845,0.204546,0.643724,0.866159,0.054441,18.530991,16.572021,51.936707,,,,,,
1484030199.044748,-1.924495,1.331537,1.035498,-6.117101,-1.293999,12.264516,-0.222314,-0.971514,0.082084,0.568383,0.715364,-0.383567,18.530991,16.572021,51.936707,,,,,,
,,,,,,,,,,,,,,,,33.759175,-118.389349,310.302673,0.000000,-1.000000,1484030199.004733
1484030199.064737,-1.564335,1.088124,0.625744,-4.300463,-1.373795,13.493089,-0.464138,-0.885758,-0.002999,0.379025,0.889267,-0.564140,5.774704,1.646057,38.567261,,,,,,
1484030199.084757,-1.524496,0.812012,0.544787,-1.797452,-1.406284,13.728936,-0.687302,-0.725673,-0.031845,-0.162124,1.087611,-0.423019,-5.249725,2.033569,35.848755,,,,,,
1484030199.104746,-1.549138,0.559057,0.539952,-0.106914,-1.288695,11.713158,-0.847557,-0.530387,-0.018360,-0.928078,1.168281,-0.152676,-17.437119,9.478027,36.618225,,,,,,
1484030199.124764,-1.563733,0.374644,0.546929,0.307899,-0.015641,7.587869,-0.930615,-0.365942,-0.006574,-1.577976,0.920782,-0.018573,-28.928909,20.676880,41.045044,,,,,,
1484030199.144753,-1.539932,0.285528,0.556063,0.454380,2.092347,2.693448,-0.959056,-0.281665,-0.029610,-1.683034,0.837695,-0.120201,-28.928909,20.676880,41.045044,,,,,,
1484030199.164773,-1.488301,0.275191,0.575839,1.294484,3.140960,-0.426114,-0.959100,-0.271731,-0.079301,-1.688971,0.676898,-0.187408,-41.821716,36.604004,46.196045,,,,,,
1484030199.184762,-1.436840,0.306391,0.607459,1.796105,2.797433,-1.815219,-0.944887,-0.301620,-0.127336,-1.554167,0.457809,-0.090941,-41.972275,36.602478,45.070801,,,,,,
1484030199.204782,-1.402342,0.355095,0.629772,1.067757,1.583617,-2.473142,-0.924342,-0.347679,-0.157199,-1.422414,0.151222,-0.090390,-39.883743,34.496521,43.209473,,,,,,
1484030199.224771,-1.388073,0.412590,0.628164,0.092684,0.282751,-3.166879,-0.900835,-0.400983,-0.166461,-1.205977,0.015226,-0.255186,-37.650711,31.191833,42.329346,,,,,,
1484030199.244791,-1.369695,0.489809,0.606412,-0.311146,0.784808,-4.535670,-0.864639,-0.470458,-0.176262,-0.806457,-0.154863,-0.486595,-37.650711,31.191833,42.329346,,,,,,
1484030199.264780,-1.325379,0.595285,0.581726,0.594864,2.003169,-5.862225,-0.803179,-0.560744,-0.201169,-0.443174,-0.122285,-0.648394,-35.118271,27.811096,41.000122,,,,,,
1484030199.284799,-1.277583,0.726098,0.583237,2.607808,2.669983,-6.464740,-0.715856,-0.663957,-0.216128,-0.111323,0.018449,-0.661527,-26.248550,17.289795,35.665955,,,,,,
1484030199.304788,-1.261868,0.874093,0.639867,4.976222,2.914701,-6.483607,-0.611315,-0.766962,-0.195099,0.115252,0.258066,-0.497162,-19.228653,11.352966,34.806213,,,,,,
1484030199.324808,-1.317293,1.032206,0.783576,6.815630,3.412691,-6.430556,-0.496533,-0.858433,-0.128640,0.129635,0.426319,-0.380225,-13.323776,7.146790,36.636047,,,,,,
1484030199.344797,-1.482907,1.184585,1.066865,7.927553,5.094399,-6.414502,-0.375227,-0.926343,-0.033064,0.225187,0.718076,-0.140017,-13.323776,7.146790,36.636047,,,,,,
1484030199.364816,-1.909530,1.294687,1.644897,8.921478,6.743281,-6.452746,-0.257123,-0.962123,0.090588,0.224546,0.859111,0.067234,-7.407700,4.968872,40.555908,,,,,,
1484030199.384805,-2.552011,1.280992,2.467476,9.348754,7.925269,-6.337090,-0.158889,-0.958300,0.237520,0.058852,0.980608,0.138624,-0.173782,10.156921,56.515747,,,,,,
1484030199.404824,-2.898099,1.159230,3.008319,8.875434,8.297587,-5.917818,-0.096449,-0.916495,0.388245,-0.060656,1.044761,0.141174,-0.273041,19.247986,67.120178,,,,,,
1484030199.424814,-3.008816,1.020071,-2.967325,7.626900,7.951974,-5.610693,-0.069279,-0.852145,0.518699,-0.333996,1.061938,0.135079,-2.832901,31.266968,77.181274,,,,,,
1484030199.444834,-3.033798,0.901406,-2.756408,5.971251,7.056994,-5.149183,-0.066758,-0.784200,0.616906,-0.616393,1.090749,0.110144,-2.832901,31.266968,77.181274,,,,,,
1484030199.464823,-3.037277,0.815358,-2.586937,4.203540,5.765484,-5.122165,-0.071390,-0.727971,0.681881,-0.809347,1.124273,0.193241,-7.490891,43.811707,85.736572,,,,,,
1484030199.484842,-3.052647,0.766820,-2.431021,2.192542,4.121696,-5.273554,-0.063967,-0.693849,0.717274,-0.856306,1.161821,0.233761,-16.395889,61.839661,95.458008,,,,,,
1484030199.504827,-3.092953,0.755394,-2.291113,0.224192,1.947978,-4.838627,-0.035395,-0.685575,0.727141,-0.828954,1.033872,0.109422,-19.603210,65.221802,97.011230,,,,,,
1484030199.524847,3.110651,0.770576,-2.171901,-1.160790,-1.118104,-3.972079,0.022197,-0.696549,0.717166,-0.863292,0.961624,-0.061862,-20.354752,64.922852,96.936584,,,,,,
1484030199.544836,2.972903,0.798217,-2.077681,-1.978084,-5.090417,-2.746300,0.117185,-0.716113,0.688077,-0.836362,0.885974,-0.169523,-20.354752,64.922852,96.936584,,,,,,
1484030199.564825,2.763789,0.838936,-1.996723,-3.297126,-8.910836,-1.753291,0.246506,-0.743932,0.621128,-0.672607,0.990926,-0.172306,-18.346024,61.768311,95.905457,,,,,,
1484030199.584844,2.471117,0.915263,-1.888465,-6.257982,-11.313684,-0.593948,0.378769,-0.792723,0.477623,-0.125305,1.111784,-0.110528,-12.746033,57.031006,93.312500,,,,,,
1484030199.604833,2.036936,1.038755,-1.669853,-9.995285,-13.688859,2.243753,0.453170,-0.861773,0.227998,0.440689,0.808246,-0.260912,5.292892,36.281860,78.593384,,,,,,
1484030199.624853,1.306658,1.178189,-1.203922,-10.839994,-16.639236,7.977166,0.369330,-0.923915,-0.099888,0.922861,-0.404973,-0.847881,13.754761,20.343872,61.735718,,,,,,
1484030199.644842,0.223417,1.196816,-0.416066,-8.320674,-17.746902,12.504363,0.080942,-0.930880,-0.356244,0.981390,-0.400952,-0.939792,13.754761,20.343872,61.735718,,,,,,
1484030199.664861,-0.610624,0.996309,0.128311,-6.646228,-16.397783,14.622295,-0.311577,-0.839471,-0.445206,0.577400,-0.329398,-0.604278,15.100418,6.363464,42.832703,,,,,,
1484030199.684850,-1.003151,0.714257,0.283164,-5.483160,-11.731751,12.715277,-0.637082,-0.655056,-0.406236,0.067807,-0.246540,-0.330900,6.890274,0.729980,28.898499,,,,,,
1484030199.704870,-1.161903,0.517119,0.301705,-2.890577,-4.620185,6.570051,-0.797588,-0.494378,-0.345607,-0.696263,0.170708,-0.202305,-23.182434,16.519958,25.549377,,,,,,
1484030199.724859,-1.161102,0.474828,0.296722,0.032856,2.369097,-0.758655,-0.815769,-0.457185,-0.354263,-1.434704,0.321657,-0.320466,-29.524979,22.832275,27.383301,,,,,,
1484030199.744878,-1.072849,0.550420,0.294008,2.327633,4.866276,-4.475643,-0.748805,-0.523045,-0.407080,-1.572621,0.077428,-0.709024,-29.524979,22.832275,27.383301,,,,,,
1484030199.764867,-1.004268,0.655399,0.295666,2.785652,2.168150,-4.080137,-0.668944,-0.609475,-0.425503,-1.368501,-0.105414,-0.817981,-26.987869,20.425903,25.674194,,,,,,
1484030199.784887,-1.022552,0.723962,0.311062,2.018224,-1.835711,-1.622951,-0.639387,-0.662358,-0.390469,-0.848299,-0.374385,-0.591068,-20.643555,14.488342,23.688416,,,,,,
1484030199.804876,-1.106720,0.749072,0.341129,1.430711,-3.766902,-0.190028,-0.654867,-0.680959,-0.327785,-0.557276,-0.372904,-0.303471,-16.917755,9.386719,26.269531,,,,,,
1484030199.824896,-1.208772,0.765997,0.372164,1.366031,-4.105756,-0.559022,-0.673978,-0.693256,-0.255246,-0.559161,-0.201581,-0.170245,-17.293930,8.940430,28.371155,,,,,,
1484030199.844885,-1.303719,0.796308,0.398887,1.367269,-3.458338,-1.482748,-0.674556,-0.714779,-0.184568,-0.569859,-0.134464,-0.228884,-17.293930,8.940430,28.371155,,,,,,
1484030199.864904,-1.379433,0.838901,0.429412,1.668570,-2.416914,-2.054605,-0.656082,-0.743909,-0.127105,-0.474488,-0.042910,-0.284287,-16.693649,8.792542,30.397827,,,,,,
1484030199.884893,-1.466539,0.890377,0.480083,2.178610,-2.431197,-2.431595,-0.625703,-0.777309,-0.065471,-0.359191,-0.051151,-0.324849,-16.321289,8.119202,31.901794,,,,,,
1484030199.904913,-1.570681,0.944515,0.551381,2.359196,-2.357152,-2.717908,-0.586136,-0.810213,-0.000068,-0.195191,0.005434,-0.246636,-14.675766,7.069031,33.409485,,,,,,
1484030199.924902,-1.686748,1.002533,0.640948,2.342436,-1.859888,-3.320781,-0.534555,-0.842837,0.062262,-0.088049,0.040072,-0.173163,-10.035187,4.817627,37.102661,,,,,,
1484030199.944921,-1.819120,1.071008,0.763371,2.562559,-1.057596,-4.338731,-0.464539,-0.877684,0.117787,-0.031112,0.142607,-0.166554,-10.035187,4.817627,37.102661,,,,,,
1484030199.964910,-2.004687,1.145546,0.957099,2.981154,-0.281209,-5.317371,-0.374321,-0.910935,0.173437,0.052651,0.234010,-0.107641,-6.965179,3.689941,38.387878,,,,,,
1484030199.984930,-2.273198,1.209519,1.256434,3.164913,0.972658,-5.981979,-0.269801,-0.935446,0.228360,0.123301,0.341238,-0.037671,-2.619217,2.710999,40.124329,,,,,,
1484030200.004919,-2.615657,1.237973,1.660665,3.476607,2.362075,-6.244848,-0.164017,-0.945124,0.282559,0.223908,0.448084,0.019443,1.734299,3.158386,42.678650,,,,,,
1484030200.024938,-2.959766,1.210507,2.088604,3.898617,3.354254,-6.399735,-0.063749,-0.935795,0.346734,0.258970,0.481724,0.111930,9.637238,8.032166,49.791138,,,,,,
1484030200.044927,3.082266,1.136489,2.436248,4.160409,4.368371,-6.536173,0.024949,-0.907162,0.420041,0.263030,0.537457,0.210528,9.637238,8.032166,49.791138,,,,,,
,,,,,,,,,,,,,,,,33.759175,-118.389349,309.018311,0.000000,-1.000000,1484030200.004411
1484030200.064947,2.949211,1.034967,2.692240,4.310946,4.800725,-6.569213,0.097616,-0.859846,0.501135,0.213785,0.652296,0.210153,12.290939,13.211609,55.394165,,,,,,
1484030200.084936,2.891413,0.925052,2.878567,4.078101,4.912815,-6.028473,0.148991,-0.798652,0.583058,0.203441,0.820136,0.228771,13.529709,20.344116,61.660339,,,,,,
1484030200.104955,2.881258,0.826861,3.009892,3.393770,4.216711,-4.845807,0.174311,-0.735809,0.654370,0.208593,0.821808,0.329852,12.902161,29.130554,68.665527,,,,,,
1484030200.124944,2.886890,0.760701,3.096839,1.721160,2.760830,-3.053260,0.182506,-0.689430,0.700984,0.167836,0.797813,0.421468,11.375458,38.142517,75.143188,,,,,,
1484030200.144964,2.890817,0.750087,3.128642,-0.767329,0.374168,-0.100907,0.181558,-0.681702,0.708744,0.190253,0.727021,0.493801,11.375458,38.142517,75.143188,,,,,,
1484030200.164953,2.893700,0.806781,3.088904,-3.295748,-2.177931,3.408156,0.169748,-0.722064,0.670678,0.417441,0.612445,0.414481,8.877808,47.980774,81.465210,,,,,,
1484030200.184972,2.932049,0.913772,2.963507,-4.730271,-3.014766,6.106168,0.127047,-0.791813,0.597403,0.564267,0.737080,0.287576,9.829224,43.476074,79.314148,,,,,,
1484030200.204961,3.056401,1.035512,2.748937,-5.269444,-2.366585,7.180743,0.043402,-0.860124,0.508236,0.571786,0.797349,0.161900,10.308990,34.992004,73.732300,,,,,,
1484030200.224981,-2.970515,1.137199,2.422071,-5.368175,-1.401727,7.515359,-0.071526,-0.907460,0.414005,0.528802,0.832341,0.025403,10.110077,25.832886,67.477844,,,,,,
1484030200.244970,-2.562804,1.178596,1.948868,-5.355575,-1.342066,8.502267,-0.209080,-0.924070,0.319968,0.487614,0.817182,-0.124396,10.110077,25.832886,67.477844,,,,,,
1484030200.264990,-2.128969,1.117439,1.437909,-5.317649,-2.036405,9.996287,-0.371511,-0.898982,0.231974,0.422689,0.577799,-0.376703,4.182144,11.350342,56.441345,,,,,,
1484030200.284979,-1.880062,0.961099,1.086206,-4.443060,-3.363214,11.124593,-0.545453,-0.819821,0.174282,0.174786,0.599256,-0.517086,-2.062408,7.902649,51.799255,,,,,,
1484030200.304968,-1.811106,0.758386,0.892743,-2.677695,-4.118897,11.537518,-0.705086,-0.687751,0.172778,-0.004570,0.649558,-0.348376,-9.260483,8.584106,48.859985,,,,,,
1484030200.324987,-1.815243,0.552465,0.783059,-1.313858,-2.952132,10.617197,-0.825927,-0.524787,0.206015,-0.099289,0.660911,-0.125983,-18.534073,13.848206,49.044800,,,,,,
1484030200.344976,-1.805762,0.377645,0.713294,-0.731427,0.164567,8.344047,-0.903994,-0.368732,0.216405,-0.114744,0.588566,0.033946,-18.534073,13.848206,49.044800,,,,,,
1484030200.364996,-1.753608,0.248657,0.675572,-0.147279,2.874977,5.778715,-0.953093,-0.246103,0.176204,-0.365724,0.592431,-0.038890,-36.063095,32.409119,55.375671,,,,,,
1484030200.384985,-1.689990,0.155575,0.668159,0.692527,2.905111,4.173367,-0.980913,-0.154948,0.117476,-0.724714,0.497279,-0.220930,-41.721329,40.595093,57.051270,,,,,,
1484030200.405004,-1.654933,0.080757,0.685799,1.492300,1.218571,3.386370,-0.993215,-0.080670,0.083763,-0.966792,0.475170,-0.086723,-45.512985,47.201721,57.687500,,,,,,
1484030200.424993,-1.643964,0.026696,0.708583,1.105269,0.433037,2.046453,-0.996969,-0.026693,0.073076,-0.714136,0.603856,-0.043367,-48.707993,53.058655,59.078430,,,,,,
1484030200.445013,-1.628162,0.006620,0.717593,0.186738,1.147479,0.348059,-0.998333,-0.006620,0.057333,-0.570087,0.365918,0.216395,-48.707993,53.058655,59.078430,,,,,,
1484030200.465002,-1.592989,0.018340,0.712207,-0.549706,2.100018,-1.115126,-0.999586,-0.018339,0.022187,-0.546191,0.261045,0.307647,-50.862289,57.039246,60.705261,,,,,,
1484030200.485021,-1.541861,0.058884,0.694216,-1.124367,2.671820,-2.599457,-0.997849,-0.058850,-0.028881,-0.555511,0.307568,0.268566,-51.163162,57.037109,58.979919,,,,,,
1484030200.504982,-1.485980,0.126187,0.656532,-1.954168,2.646803,-3.982736,-0.988483,-0.125853,-0.084041,-0.506436,0.142866,-0.003346,-49.604980,54.029419,55.397217,,,,,,
1484030200.525002,-1.419371,0.216896,0.606174,-1.807718,3.148321,-5.309414,-0.965395,-0.215199,-0.147313,-0.227018,0.124547,-0.014354,-47.011215,48.243591,50.780151,,,,,,
1484030200.544991,-1.329070,0.328647,0.554508,-1.069949,4.352187,-6.342946,-0.918962,-0.322763,-0.226568,0.066515,0.163690,0.098287,-47.011215,48.243591,50.780151,,,,,,
1484030200.565010,-1.200098,0.454183,0.493500,-0.731908,5.841040,-7.096625,-0.837581,-0.438728,-0.325540,0.370036,0.175133,0.213647,-42.774155,41.253296,44.821411,,,,,,
1484030200.584999,-1.028124,0.573436,0.406227,-0.906965,6.651433,-6.898833,-0.719354,-0.542522,-0.433820,0.535776,0.039989,0.259900,-29.736206,25.016113,33.072144,,,,,,
1484030200.605019,-0.834891,0.658085,0.290939,-1.505228,6.002796,-5.720817,-0.586430,-0.611603,-0.531076,0.512760,-0.063095,0.106745,-21.297852,18.244995,27.493591,,,,,,
1484030200.625008,-0.655969,0.693590,0.171367,-2.073359,4.675581,-4.044142,-0.469007,-0.639302,-0.609365,0.418958,-0.140712,0.027516,-15.019928,14.254272,23.248047,,,,,,
1484030200.645027,-0.517949,0.690139,0.071184,-2.378431,3.216088,-2.618806,-0.381799,-0.636645,-0.670010,0.283060,-0.116911,-0.034107,-15.019928,14.254272,23.248047,,,,,,
1484030200.665016,-0.417604,0.665664,0.000200,-2.295233,2.635095,-1.558129,-0.318985,-0.617582,-0.718917,0.221786,-0.020129,0.018966,-10.303101,12.893127,20.486877,,,,,,
1484030200.685036,-0.339203,0.635253,-0.046900,-2.003129,2.446061,-1.042820,-0.267826,-0.593381,-0.759057,0.147190,0.064786,0.089517,-4.150070,13.853577,16.966248,,,,,,
1484030200.705025,-0.263899,0.605150,-0.086450,-1.919575,2.897052,-1.193624,-0.214525,-0.568886,-0.793945,0.168519,0.047676,0.119232,-2.648270,14.373962,15.390991,,,,,,
1484030200.725045,-0.169734,0.571798,-0.129899,-2.080735,3.920399,-1.524449,-0.142050,-0.541145,-0.828845,0.137503,-0.042488,0.020038,-0.692764,15.569519,14.412903,,,,,,
1484030200.745034,-0.053290,0.535301,-0.176598,-1.978465,4.979030,-1.928582,-0.045814,-0.510100,-0.858894,0.023383,0.040252,-0.008294,-0.692764,15.569519,14.412903,,,,,,
1484030200.765053,0.076575,0.498648,-0.224069,-1.691664,5.526349,-2.151545,0.067185,-0.478239,-0.875656,0.022293,0.061445,-0.062652,2.010742,16.314941,14.038269,,,,,,
1484030200.785042,0.212244,0.465134,-0.268568,-1.181922,5.868778,-2.201906,0.188274,-0.448542,-0.873706,0.019337,0.098536,-0.106183,6.138702,16.908691,13.966492,,,,,,
1484030200.805062,0.338070,0.436913,-0.304912,-0.759236,5.203223,-1.740693,0.300511,-0.423145,-0.854776,0.008388,-0.083005,-0.296362,14.396118,18.174438,16.147522,,,,,,
1484030200.825051,0.439502,0.419769,-0.329994,-0.086595,4.173547,-1.220600,0.388550,-0.407550,-0.826397,-0.084320,-0.088621,-0.325672,16.575516,18.849304,18.172424,,,,,,
1484030200.845070,0.521333,0.415464,-0.356215,0.585380,3.290843,-1.192026,0.455668,-0.403615,-0.793387,-0.143488,0.020741,-0.270563,16.575516,18.849304,18.172424,,,,,,
1484030200.865059,0.594532,0.413135,-0.389896,0.758317,2.805360,-1.475198,0.512996,-0.401482,-0.758714,-0.135570,0.025658,-0.243010,18.827194,18.924866,20.800415,,,,,,
1484030200.885079,0.657639,0.408870,-0.425844,0.843460,2.224297,-1.417111,0.560865,-0.397573,-0.726200,-0.122053,-0.052348,-0.286984,20.181931,19.601929,23.499084,,,,,,
1484030200.905068,0.703508,0.409561,-0.460260,1.156221,1.160821,-1.033057,0.593395,-0.398207,-0.699509,-0.127743,-0.120180,-0.381057,23.337250,20.278015,27.400452,,,,,,
1484030200.925087,0.711051,0.423514,-0.491864,1.682834,-1.250327,-0.379850,0.594971,-0.410966,-0.690736,-0.195481,-0.099318,-0.436095,23.565872,20.879456,28.597717,,,,,,
1484030200.945076,0.664680,0.453073,-0.517131,1.942531,-3.789114,0.311617,0.554575,-0.437730,-0.707699,-0.173762,-0.044539,-0.340717,23.565872,20.879456,28.597717,,,,,,
1484030200.965096,0.567218,0.492532,-0.527214,1.814016,-5.783587,1.079008,0.473425,-0.472859,-0.743151,-0.034628,-0.095440,-0.274625,23.266891,21.104614,28.371155,,,,,,
1484030200.985085,0.437218,0.535353,-0.516848,1.594227,-6.413382,1.565639,0.364179,-0.510145,-0.779183,-0.009321,-0.000368,-0.129631,22.434326,19.827332,26.051270,,,,,,
1484030201.005104,0.302023,0.573292,-0.497347,1.369607,-6.088151,1.334561,0.249895,-0.542400,-0.802094,-0.061907,0.070995,-0.050568,17.168732,17.350586,19.605774,,,,,,
1484030201.025093,0.176413,0.601622,-0.477913,1.102321,-5.598702,1.058518,0.144685,-0.565980,-0.811623,-0.033463,-0.013793,-0.083472,14.687546,16.375366,16.981934,,,,,,
1484030201.045113,0.052176,0.626148,-0.455187,1.183863,-5.680834,1.100372,0.042258,-0.586028,-0.809188,0.005670,-0.007997,-0.165406,14.687546,16.375366,16.981934,,,,,,
,,,,,,,,,,,,,,,,33.759175,-118.389349,309.097168,0.000000,-1.000000,1484030201.004411
1484030201.065102,-0.087940,0.653225,-0.421818,1.502415,-6.227274,1.493577,-0.069746,-0.607751,-0.791059,0.079710,0.015755,-0.093798,11.463455,16.678345,15.775696,,,,,,
1484030201.085121,-0.245519,0.678541,-0.370364,1.613411,-6.275577,1.945704,-0.189220,-0.627658,-0.755143,0.138225,0.058917,0.003389,8.235245,16.156433,14.573425,,,,,,
1484030201.105110,-0.402874,0.696192,-0.308714,1.603496,-5.644004,1.933025,-0.300827,-0.641301,-0.705859,0.158477,0.112797,0.090716,3.583817,15.937317,13.892517,,,,,,
1484030201.125130,-0.537475,0.709049,-0.251307,1.525344,-4.390491,1.460726,-0.388574,-0.651112,-0.651968,0.156488,0.120625,0.168448,-4.216614,15.725952,15.156860,,,,,,
1484030201.145119,-0.636520,0.718859,-0.207258,1.184378,-3.064926,0.950453,-0.447320,-0.658527,-0.605184,0.077127,0.043979,0.124211,-4.216614,15.725952,15.156860,,,,,,
1484030201.165139,-0.715323,0.721794,-0.174489,0.709370,-2.854594,0.905771,-0.492304,-0.660732,-0.566631,0.108621,-0.056416,-0.068867,-6.916779,15.581665,16.278503,,,,,,
1484030201.185128,-0.796540,0.713947,-0.142457,0.541501,-3.125069,1.342984,-0.540341,-0.654822,-0.528432,0.147503,-0.032830,-0.153774,-9.016571,15.511597,17.400696,,,,,,
1484030201.205147,-0.885719,0.700404,-0.099872,0.903280,-2.996969,1.682561,-0.592070,-0.644527,-0.483776,0.171095,0.031947,-0.102055,-11.711945,16.342041,18.367554,,,,,,
1484030201.225136,-0.968327,0.686861,-0.054323,1.013975,-2.434201,1.456756,-0.637103,-0.634113,-0.438179,0.117602,0.038837,-0.025460,-16.203598,17.703308,21.428955,,,,,,
1484030201.245125,-1.024581,0.678827,-0.021713,0.666011,-1.381329,0.744231,-0.665063,-0.627881,-0.404298,0.121041,0.032681,-0.021147,-16.203598,17.703308,21.428955,,,,,,
1484030201.265145,-1.041102,0.677632,-0.014615,-0.063711,-0.118227,-0.162030,-0.672298,-0.626950,-0.393635,0.061901,-0.027439,-0.078334,-18.448547,18.534363,23.221497,,,,,,
1484030201.285134,-1.021769,0.685644,-0.030661,-0.422795,0.711629,-0.890824,-0.660257,-0.633171,-0.403924,0.061060,-0.073722,-0.191398,-18.746384,18.910645,23.744141,,,,,,
1484030201.305153,-0.990635,0.697168,-0.053211,-0.392631,0.829760,-0.922170,-0.641217,-0.642049,-0.420253,0.030484,-0.055064,-0.231663,-18.597977,18.610168,23.595886,,,,,,
1484030201.325142,-0.971768,0.706967,-0.069655,-0.151165,0.082128,-0.654505,-0.627949,-0.649531,-0.428707,0.022694,-0.019583,-0.255069,-17.625580,18.157715,22.924561,,,,,,
1484030201.345162,-0.972285,0.715541,-0.078302,0.012059,-0.418719,-0.507666,-0.623546,-0.656026,-0.425230,0.079967,-0.073283,-0.161120,-17.625580,18.157715,22.924561,,,,,,
1484030201.365151,-0.967275,0.726203,-0.090614,-0.076929,-0.128417,-0.709110,-0.615614,-0.664035,-0.424354,0.112425,-0.043225,-0.129570,-16.502792,17.780029,22.253174,,,,,,
1484030201.385170,-0.948662,0.740443,-0.111880,-0.343128,0.449368,-1.207108,-0.599864,-0.674615,-0.430184,0.101466,-0.086142,-0.181389,-15.528900,17.553711,22.330750,,,,,,
1484030201.405159,-0.917045,0.757091,-0.140386,-0.282339,0.637899,-1.307564,-0.576969,-0.686810,-0.442039,0.097248,-0.064533,-0.188072,-15.533279,16.727905,21.809875,,,,,,
1484030201.425179,-0.885553,0.775916,-0.167245,-0.156306,0.645442,-1.380898,-0.552655,-0.700370,-0.451724,0.196530,-0.044289,-0.115384,-14.111267,16.199829,21.139648,,,,,,
1484030201.445168,-0.847859,0.794152,-0.198232,-0.320407,0.909394,-1.368874,-0.525573,-0.713270,-0.463702,0.177276,-0.015658,-0.031797,-14.111267,16.199829,21.139648,,,,,,
1484030201.465187,-0.803672,0.806265,-0.231033,-0.474615,1.047962,-1.149305,-0.498320,-0.721707,-0.480433,0.087203,0.012402,-0.050512,-11.341766,15.218811,19.948669,,,,,,
1484030201.485176,-0.760134,0.814536,-0.263944,-0.471736,0.902450,-1.043909,-0.472808,-0.727408,-0.497323,0.068786,0.011679,-0.085944,-10.442474,15.067627,20.025818,,,,,,
1484030201.505206,-0.724281,0.821081,-0.292971,-0.383529,0.592025,-0.889147,-0.451514,-0.731883,-0.510375,0.043967,-0.025746,-0.173799,-9.019257,14.838562,18.754089,,,,,,
1484030201.525195,-0.702752,0.828120,-0.313209,-0.024005,0.205357,-0.676065,-0.437082,-0.736662,-0.516032,0.017617,-0.028109,-0.196370,-7.444412,14.835693,18.456421,,,,,,
1484030201.545214,-0.691898,0.839443,-0.322594,0.503898,0.188674,-0.605007,-0.426106,-0.744271,-0.514290,-0.003399,0.031350,-0.127266,-7.444412,14.835693,18.456421,,,,,,
1484030201.565203,-0.683216,0.858518,-0.326830,0.673084,0.330485,-0.812258,-0.412586,-0.756875,-0.506866,0.001530,0.040932,-0.095719,-6.322250,14.308472,18.085754,,,,,,
1484030201.585223,-0.664178,0.880285,-0.339345,0.536685,0.580118,-1.110341,-0.392613,-0.770920,-0.501535,-0.000530,0.052613,-0.019263,-5.726746,13.407654,18.091125,,,,,,
1484030201.605212,-0.635381,0.901127,-0.359116,0.412558,0.624659,-1.087823,-0.368392,-0.784027,-0.499589,-0.000078,-0.001541,0.026490,-4.378067,13.106140,18.469666,,,,,,
1484030201.625232,-0.616442,0.916991,-0.374272,0.357394,0.114194,-0.655634,-0.351629,-0.793775,-0.496265,0.015585,-0.022509,0.007221,-2.957977,12.129028,18.401733,,,,,,
1484030201.645221,-0.625381,0.926500,-0.374020,0.418279,-0.736213,-0.033015,-0.351616,-0.799522,-0.486960,0.029320,-0.052788,-0.012918,-2.957977,12.129028,18.401733,,,,,,
1484030201.665240,-0.652962,0.931701,-0.360855,0.447129,-0.841291,0.206312,-0.362380,-0.802636,-0.473768,0.019652,0.010934,0.073622,-2.357986,12.128113,18.402649,,,,,,
1484030201.685229,-0.671988,0.937073,-0.352042,0.302057,-0.422933,-0.100435,-0.368638,-0.805828,-0.463407,-0.040252,0.065182,0.136946,-2.659180,11.829346,19.003662,,,,,,
1484030201.705249,-0.672637,0.943765,-0.356790,0.099506,-0.165373,-0.411613,-0.365571,-0.809773,-0.458940,-0.091628,0.068135,0.143922,-3.184509,11.755310,19.078247,,,,,,
1484030201.725238,-0.674192,0.948335,-0.363862,0.060992,-0.542814,-0.164596,-0.363970,-0.812446,-0.455475,-0.052229,-0.008217,0.061966,-3.185745,11.529968,18.854370,,,,,,
1484030201.745257,-0.694116,0.949639,-0.357791,0.230390,-0.821974,0.227834,-0.372294,-0.813206,-0.447318,0.009959,-0.028713,0.088310,-3.185745,11.529968,18.854370,,,,,,
1484030201.765246,-0.723284,0.950926,-0.342461,0.333326,-0.775491,0.292575,-0.384489,-0.813954,-0.435486,-0.046908,0.027989,0.143051,-2.736130,11.454285,18.855408,,,,,,
1484030201.785266,-0.746513,0.953083,-0.329655,0.319393,-0.545881,0.137749,-0.393306,-0.815205,-0.425148,-0.102360,0.035664,0.184654,-3.784882,11.681213,19.077759,,,,,,
1484030201.805255,-0.766564,0.957777,-0.316532,0.301835,-0.266692,-0.020649,-0.399092,-0.817915,-0.414416,-0.094026,0.044203,0.226382,-4.085419,11.532288,19.528015,,,,,,
1484030201.825274,-0.775940,0.962788,-0.308674,0.378176,-0.074979,0.020755,-0.400085,-0.820787,-0.407725,-0.099213,0.013292,0.262492,-4.235703,11.457764,19.678162,,,,,,
1484030201.845263,-0.842527,0.978114,-0.250520,0.512725,-0.151544,0.191848,-0.416890,-0.829445,-0.371785,-0.092479,0.052941,0.278462,-4.235703,11.457764,19.678162,,,,,,
1484030201.865283,-0.862663,0.981395,-0.232214,0.456165,-0.292164,0.188220,-0.422222,-0.831273,-0.361543,-0.139988,0.095739,0.367677,-4.387848,11.008301,19.905212,,,,,,
1484030201.885272,-0.879737,0.984167,-0.220450,0.264320,-0.404116,0.053700,-0.426555,-0.832811,-0.352811,-0.174321,0.079897,0.437528,-4.687973,10.934509,20.355103,,,,,,
1484030201.905291,-0.889365,0.986688,-0.219182,0.015179,-0.392316,-0.128490,-0.428300,-0.834204,-0.347365,-0.149932,0.076728,0.430784,-4.463348,10.785217,21.106140,,,,,,
1484030201.925280,-0.886465,0.986770,-0.224308,-0.164844,0.134728,-0.073074,-0.427238,-0.834249,-0.348562,-0.066277,0.076498,0.441046,-5.213043,10.861145,20.954712,,,,,,
1484030201.945300,-0.873148,0.986128,-0.231913,-0.160433,0.436329,-0.145327,-0.422969,-0.833895,-0.354565,-0.081106,-0.011121,0.384533,-5.213043,10.861145,20.954712,,,,,,
1484030201.965289,-0.858865,0.987831,-0.240361,-0.074018,0.324641,-0.233191,-0.416786,-0.834834,-0.359641,-0.145592,-0.052663,0.290870,-4.988464,10.785645,20.880371,,,,,,
1484030201.985308,-0.850217,0.991261,-0.243391,0.125062,0.335837,-0.131443,-0.411506,-0.836717,-0.361341,-0.079445,0.070833,0.267042,-4.310318,11.385193,21.178406,,,,,,
1484030202.005297,-0.846666,0.993911,-0.239847,0.139124,0.238125,0.041615,-0.408558,-0.838166,-0.361330,0.024311,0.163941,0.251588,-4.312866,10.860352,21.331055,,,,,,
1484030202.025317,-0.852738,0.988226,-0.235979,-0.316419,-0.356497,0.449244,-0.414326,-0.835051,-0.361971,0.062138,-0.002610,0.071887,-4.762344,10.936523,21.630005,,,,,,
1484030202.045306,-0.863201,0.969281,-0.237608,-0.806887,-0.676424,0.806195,-0.430037,-0.824479,-0.367835,0.060424,-0.136367,-0.017160,-4.762344,10.936523,21.630005,,,,,,
1484030202.065326,-0.874789,0.945347,-0.239447,-0.753292,-0.615561,0.926065,-0.449288,-0.810700,-0.375374,0.106667,-0.013778,0.013893,-5.358337,11.688049,22.075378,,,,,,
,,,,,,,,,,,,,,,,33.759130,-118.389340,312.930542,0.000000,-1.000000,1484030202.004410
1484030202.085315,-0.890780,0.921504,-0.230400,-0.447905,-0.339280,1.212318,-0.470132,-0.796512,-0.380190,0.207101,0.096454,0.025774,-6.403885,12.589478,21.994263,,,,,,
1484030202.105334,-0.905099,0.896107,-0.216214,-0.517529,-0.021443,1.245230,-0.491283,-0.780901,-0.385792,0.240871,0.083467,-0.001095,-8.796204,14.093445,22.283142,,,,,,
1484030202.125323,-0.899847,0.871420,-0.215034,-0.836002,0.526087,0.823212,-0.504198,-0.765244,-0.400233,0.210283,0.009995,0.013712,-10.065353,15.221008,22.725647,,,,,,
1484030202.145343,-0.882652,0.851545,-0.218324,-0.551243,0.731467,0.692243,-0.508891,-0.752299,-0.418421,0.125957,-0.009298,-0.124197,-10.065353,15.221008,22.725647,,,,,,
1484030202.165332,-0.878123,0.836859,-0.208100,-0.003077,0.530146,0.861805,-0.515438,-0.742543,-0.427731,0.082302,0.002003,-0.185840,-10.285843,16.121399,22.720764,,,,,,
1484030202.185351,-0.883543,0.823948,-0.186515,0.199706,0.588012,1.037605,-0.525116,-0.733834,-0.430978,0.128463,0.008843,-0.109016,-11.181732,16.947754,22.715332,,,,,,
1484030202.205340,-0.887409,0.810195,-0.159381,0.361247,0.901393,1.182161,-0.534554,-0.724422,-0.435276,0.146935,-0.008031,-0.072673,-11.255005,17.248596,23.163696,,,,,,
1484030202.225329,-0.891036,0.797110,-0.126926,0.496471,1.050063,1.256303,-0.543455,-0.715339,-0.439256,0.075209,0.010521,-0.157149,-13.125076,18.078674,24.731812,,,,,,
1484030202.245349,-0.891007,0.783083,-0.091353,0.580498,1.309674,1.414149,-0.551192,-0.705468,-0.445536,0.129165,-0.065284,-0.076895,-13.125076,18.078674,24.731812,,,,,,
1484030202.265338,-0.895318,0.767726,-0.052087,0.640329,1.112651,1.506530,-0.561498,-0.694501,-0.449877,0.084676,0.032529,-0.147825,-14.021576,18.681458,25.702332,,,,,,
1484030202.285357,-0.898503,0.753250,-0.011674,0.680720,1.303089,1.445455,-0.570734,-0.684013,-0.454301,0.121210,0.002678,-0.099563,-14.468201,19.283325,26.448669,,,,,,
1484030202.305346,-0.893352,0.739340,0.020078,0.325253,1.323644,1.128453,-0.575744,-0.673801,-0.463154,-0.009445,0.027835,-0.101971,-15.965714,19.736206,26.894165,,,,,,
1484030202.325366,-0.876319,0.727942,0.036920,0.039061,1.549816,0.685196,-0.573636,-0.665335,-0.477777,-0.000766,-0.019800,-0.050177,-17.457993,21.165161,28.009827,,,,,,
1484030202.345355,-0.847141,0.720323,0.045114,-0.021294,1.750202,0.403982,-0.563236,-0.659628,-0.497651,0.018025,-0.053889,-0.132309,-17.457993,21.165161,28.009827,,,,,,
1484030202.365374,-0.816243,0.715678,0.049494,-0.033841,1.656879,0.191867,-0.549820,-0.656130,-0.516906,-0.038758,0.004549,-0.197113,-17.753418,22.065735,28.154846,,,,,,
1484030202.385363,-0.783472,0.715729,0.049877,0.055225,1.697205,-0.083594,-0.532564,-0.656168,-0.534620,0.046816,-0.012243,-0.091341,-18.127106,22.291870,28.528137,,,,,,
1484030202.405383,-0.750042,0.719345,0.048774,0.130106,1.551430,-0.155040,-0.512777,-0.658892,-0.550382,0.047063,0.015124,-0.150347,-18.350021,22.741760,28.225586,,,,,,
1484030202.425372,-0.727133,0.720616,0.049244,-0.027224,0.951107,0.062598,-0.499478,-0.659847,-0.561358,-0.013751,-0.048664,-0.250837,-17.747009,23.266968,28.973816,,,,,,
1484030202.445391,-0.711749,0.714927,0.051298,-0.230189,0.734628,0.333672,-0.493227,-0.655562,-0.571808,0.107378,-0.065019,-0.131530,-17.747009,23.266968,28.973816,,,,,,
1484030202.465380,-0.695901,0.703114,0.048076,-0.505630,0.480650,0.315983,-0.489035,-0.646596,-0.585456,0.056921,0.017446,-0.072671,-18.865021,24.619324,29.415405,,,,,,
1484030202.485400,-0.686242,0.693088,0.044317,-0.400341,0.304458,0.138369,-0.487440,-0.638916,-0.595137,0.041990,0.060562,-0.079179,-19.386948,25.220337,29.561646,,,,,,
1484030202.505357,-0.662992,0.683563,0.030620,0.007898,0.134175,-0.083266,-0.477197,-0.631559,-0.611078,0.063928,0.054151,-0.090399,-20.208832,25.821899,29.782410,,,,,,
1484030202.525377,-0.664994,0.684732,0.033531,0.143133,-0.101666,0.213565,-0.477963,-0.632465,-0.609540,0.071393,-0.047604,-0.088901,-20.133118,25.971680,29.706726,,,,,,
1484030202.545366,-0.683618,0.677683,0.050588,0.147319,-0.603569,1.107644,-0.492035,-0.626990,-0.603974,0.075348,-0.211450,-0.135024,-20.133118,25.971680,29.706726,,,,,,
1484030202.565385,-0.727943,0.661050,0.087936,0.483055,-1.339232,1.922581,-0.525181,-0.613946,-0.589284,0.034108,-0.223045,-0.245952,-21.777771,26.950439,30.599426,,,,,,
1484030202.585374,-0.788586,0.645452,0.136922,0.907902,-1.501062,1.857683,-0.566655,-0.601560,-0.563053,0.083485,0.035108,-0.216641,-24.843155,28.756836,31.785828,,,,,,
1484030202.605394,-0.835912,0.637835,0.178183,0.918214,-0.993853,1.095833,-0.596039,-0.595458,-0.538672,0.072083,0.165358,-0.038507,-26.409958,30.187317,33.876221,,,,,,
1484030202.625383,-0.866265,0.639644,0.201693,0.683106,-0.747772,0.287683,-0.611291,-0.596910,-0.519636,-0.047431,0.061372,0.016951,-27.825912,31.841675,35.365845,,,,,,
1484030202.645402,-0.890127,0.646125,0.215810,0.654416,-0.825321,0.084912,-0.620496,-0.602097,-0.502458,-0.060611,0.007203,-0.090636,-27.825912,31.841675,35.365845,,,,,,
1484030202.665391,-0.920343,0.650890,0.232859,0.668624,-1.118434,0.329893,-0.633102,-0.605895,-0.481740,-0.046478,0.037840,-0.114665,-29.319534,32.897278,37.608337,,,,,,
1484030202.685411,-0.954485,0.652724,0.247717,0.448341,-1.273081,0.178793,-0.648270,-0.607353,-0.459205,0.030365,0.169731,-0.059289,-30.069199,32.825500,38.957581,,,,,,
1484030202.705400,-0.981437,0.660032,0.253811,0.398687,-1.098847,-0.404954,-0.656702,-0.613142,-0.439090,0.029749,0.084166,-0.014600,-30.140320,33.428223,40.754517,,,,,,
1484030202.725419,-0.997562,0.676313,0.251405,0.371063,-0.759948,-0.911897,-0.655222,-0.625922,-0.422973,0.006037,-0.066125,-0.033448,-30.362473,33.880249,41.876892,,,,,,
1484030202.745408,-1.005017,0.699198,0.245409,0.450272,-0.405508,-1.156358,-0.646094,-0.643604,-0.410289,-0.016870,-0.069348,-0.082998,-30.362473,33.880249,41.876892,,,,,,
1484030202.765428,-1.006186,0.725259,0.239196,0.545243,-0.224111,-1.255555,-0.632185,-0.663329,-0.400420,-0.034197,-0.040879,-0.118272,-29.246017,32.006042,43.537842,,,,,,
1484030202.785417,-1.011967,0.748917,0.238941,0.672904,-0.366548,-0.771440,-0.621007,-0.680846,-0.388328,0.050786,-0.170488,-0.105583,-27.528793,30.428833,43.773376,,,,,,
1484030202.805436,-1.029084,0.761526,0.249525,0.624406,-0.563995,-0.124736,-0.620157,-0.690027,-0.373186,0.077540,-0.126929,-0.024183,-26.183151,29.527283,44.079895,,,,,,
1484030202.825425,-1.045722,0.774536,0.257787,0.366666,-0.669331,0.004941,-0.618460,-0.699384,-0.358286,0.080954,-0.030947,0.043757,-25.734451,29.227234,44.457092,,,,,,
1484030202.845445,-1.063399,0.777970,0.263253,0.230756,-0.717140,-0.086540,-0.622593,-0.701835,-0.346129,0.073185,-0.033089,0.033858,-25.734451,29.227234,44.457092,,,,,,
1484030202.865434,-1.079028,0.783042,0.267040,0.236011,-0.535501,-0.147602,-0.624781,-0.705439,-0.334672,0.074473,0.010309,0.021180,-25.358139,29.378357,45.581909,,,,,,
1484030202.885453,-1.088463,0.787417,0.270789,0.221500,-0.311656,-0.122883,-0.625171,-0.708533,-0.327327,0.041842,0.024481,0.029155,-25.060547,28.853516,46.034973,,,,,,
1484030202.905442,-1.099825,0.792998,0.276593,0.121638,-0.212731,-0.138349,-0.625316,-0.712460,-0.318404,0.052989,0.069989,0.095183,-24.610291,28.853638,46.560608,,,,,,
1484030202.925462,-1.102695,0.793920,0.275142,-0.099752,-0.188259,-0.001717,-0.625641,-0.713107,-0.316311,0.033889,0.029955,0.100171,-24.909836,28.929382,46.709778,,,,,,
1484030202.945451,-1.104304,0.792622,0.272483,-0.088058,-0.170080,-0.032856,-0.626975,-0.712197,-0.315720,0.012808,0.043343,0.031174,-24.909836,28.929382,46.709778,,,,,,
1484030202.965471,-1.105169,0.793198,0.268795,-0.056510,-0.063199,-0.500263,-0.626881,-0.712600,-0.314993,0.013508,0.104217,0.038840,-24.610840,28.704224,46.936340,,,,,,
1484030202.985460,-1.088862,0.792197,0.249471,-0.728265,-0.162646,-0.340877,-0.622293,-0.711898,-0.325504,-0.022193,0.007247,-0.066631,-24.834152,29.005188,47.309509,,,,,,
1484030203.005479,-1.073495,0.793656,0.230899,-0.441046,0.231581,-0.330356,-0.616304,-0.712922,-0.334532,0.054659,-0.027328,-0.021715,-24.834259,29.004822,47.084534,,,,,,
1484030203.025468,-1.054518,0.798851,0.215418,-0.246543,0.309689,-0.289262,-0.606616,-0.716555,-0.344334,0.041613,-0.033079,-0.002972,-24.234314,29.003784,47.010437,,,,,,
1484030203.045488,-1.041750,0.803255,0.207322,-0.061077,0.360220,-0.367263,-0.599440,-0.719620,-0.350454,0.034987,-0.034576,-0.035135,-24.234314,29.003784,47.010437,,,,,,
1484030203.065477,-1.027683,0.809621,0.198855,0.066820,0.242485,-0.405868,-0.590517,-0.724026,-0.356477,-0.025953,0.019680,-0.038283,-24.235809,28.703796,47.011963,,,,,,
,,,,,,,,,,,,,,,,33.759130,-118.389340,314.567078,0.000000,231.679688,1484030203.004411
1484030203.085496,-1.020662,0.816404,0.195388,0.059088,0.243395,-0.319509,-0.583800,-0.728688,-0.358038,-0.012209,0.029073,0.022375,-23.261551,28.552307,47.014160,,,,,,
1484030203.105485,-1.012704,0.820794,0.192426,-0.093059,0.499000,-0.358525,-0.578213,-0.731688,-0.360975,0.019817,0.038298,0.060240,-22.813156,28.251465,46.866333,,,,,,
1484030203.125505,-0.991475,0.827273,0.180451,-0.201500,0.693616,-0.597136,-0.566441,-0.736089,-0.370565,-0.007045,0.025395,0.042379,-22.439880,27.950195,46.418396,,,,,,
1484030203.145494,-0.966441,0.837399,0.166681,0.223630,0.599636,-0.565873,-0.550826,-0.742905,-0.380373,0.018996,-0.020386,-0.275145,-22.439880,27.950195,46.418396,,,,,,
1484030203.165513,-0.958489,0.849132,0.168892,0.351700,0.238612,-0.419924,-0.540614,-0.750707,-0.379705,0.023722,-0.028040,-0.036845,-22.442902,27.350098,46.346375,,,,,,
1484030203.185502,-0.950873,0.860432,0.168632,0.276751,0.165519,-0.148281,-0.530768,-0.758124,-0.378858,0.057348,-0.028832,-0.018984,-21.695465,26.898010,45.749756,,,,,,
1484030203.205522,-0.948326,0.866450,0.171933,0.270346,0.347079,-0.233903,-0.526084,-0.762035,-0.377542,0.070762,-0.006153,-0.013053,-21.468201,27.273804,46.498230,,,,,,
1484030203.225511,-0.939266,0.874879,0.171403,0.251209,0.415037,-0.421513,-0.517440,-0.767466,-0.378487,0.003386,0.015681,-0.010597,-21.623840,26.222961,45.753235,,,,,,
1484030203.245530,-0.932093,0.884070,0.169371,0.214103,0.218271,-0.373144,-0.509026,-0.773326,-0.377968,-0.033210,0.029765,-0.017830,-21.623840,26.222961,45.753235,,,,,,
1484030203.265519,-0.928130,0.891307,0.169356,0.137863,0.203605,-0.167320,-0.503031,-0.777894,-0.376618,0.017207,0.004609,0.016938,-21.096497,26.598511,46.652161,,,,,,
1484030203.285508,-0.924283,0.893225,0.170124,0.053945,0.234560,-0.003716,-0.500387,-0.779097,-0.377651,0.033529,-0.001268,-0.001988,-20.725967,25.771912,45.981873,,,,,,
1484030203.305528,-0.918270,0.896017,0.170520,0.069362,0.314319,-0.002611,-0.496377,-0.780845,-0.379331,0.040612,-0.006372,0.008649,-20.127228,25.545776,45.758850,,,,,,
1484030203.325517,-0.910700,0.897970,0.169666,0.009868,0.337286,-0.138543,-0.492285,-0.782064,-0.382141,0.003561,0.013951,0.010132,-20.953812,25.246643,45.534119,,,,,,
1484030203.345536,-0.898261,0.897054,0.163208,-0.010914,0.248972,-0.112895,-0.488054,-0.781492,-0.388681,-0.016844,0.002394,-0.061011,-20.953812,25.246643,45.534119,,,,,,
1484030203.365525,-0.892144,0.898347,0.161308,-0.054481,0.207144,-0.066601,-0.484880,-0.782298,-0.391025,-0.001738,0.011760,0.022738,-20.651093,25.771484,45.756958,,,,,,
1484030203.385545,-0.890821,0.896170,0.161953,-0.033884,0.146769,-0.029461,-0.485686,-0.780941,-0.392736,-0.043550,0.020519,0.008229,-20.502106,25.620544,45.232971,,,,,,
1484030203.405534,-0.886235,0.896411,0.160265,-0.014929,0.195805,-0.067389,-0.483734,-0.781091,-0.394840,-0.051285,0.036890,0.017612,-20.652451,25.545898,45.308105,,,,,,
1484030203.425554,-0.885516,0.896245,0.162759,0.040260,0.243007,-0.088107,-0.483550,-0.780987,-0.395270,-0.050416,0.018124,0.024420,-20.354202,25.244629,44.785034,,,,,,
1484030203.445543,-0.881996,0.897564,0.163702,0.070274,0.195433,-0.021261,-0.481360,-0.781811,-0.396314,0.001242,-0.000858,0.005872,-20.354202,25.244629,44.785034,,,,,,
1484030203.465562,-0.877385,0.898619,0.162830,0.028384,0.083593,-0.009234,-0.478893,-0.782468,-0.398002,0.013973,-0.005587,-0.020699,-20.579132,25.245239,44.934692,,,,,,
1484030203.485551,-0.877967,0.898247,0.162448,-0.030330,-0.063438,0.009615,-0.479348,-0.782236,-0.397909,0.005151,0.003947,0.007498,-20.129883,25.094543,44.936157,,,,,,
1484030203.505577,-0.878790,0.898463,0.163011,-0.002207,0.029164,0.010599,-0.479546,-0.782370,-0.397407,0.004342,0.002417,0.016197,-20.505005,25.094727,44.710571,,,,,,
1484030203.525566,-0.878428,0.898494,0.162905,-0.005163,0.003678,-0.008270,-0.479383,-0.782390,-0.397565,0.003065,0.002529,0.007047,-20.355408,25.019348,44.636108,,,,,,
1484030203.545585,-0.878700,0.899275,0.164032,0.037912,0.091096,-0.000775,-0.479021,-0.782876,-0.397045,0.004457,0.004098,0.018092,-20.355408,25.019348,44.636108,,,,,,
1484030203.565574,-0.877423,0.899826,0.164895,0.030530,0.080418,-0.002788,-0.478182,-0.783219,-0.397380,0.006304,0.001099,0.002253,-20.279999,25.094360,44.710876,,,,,,
1484030203.585594,-0.876405,0.900593,0.166485,0.057783,0.147538,-0.005734,-0.477315,-0.783695,-0.397482,-0.000377,0.004185,0.008993,-20.128052,25.469421,44.859253,,,,,,
1484030203.605583,-0.875115,0.901108,0.167342,0.020041,0.054844,0.000722,-0.476492,-0.784015,-0.397839,0.009008,-0.000073,-0.006839,-20.654251,25.244995,44.709595,,,,,,
1484030203.625602,-0.873769,0.900576,0.165419,-0.044928,-0.107087,0.005883,-0.476276,-0.783685,-0.398747,0.007388,0.001214,-0.010249,-19.905487,25.018494,44.486877,,,,,,
1484030203.645591,-0.875681,0.899714,0.163558,-0.081629,-0.194460,0.008004,-0.477556,-0.783149,-0.398268,0.002549,0.002494,0.006041,-19.905487,25.018494,44.486877,,,,,,
1484030203.665611,-0.878427,0.898848,0.162054,-0.078488,-0.187004,0.010046,-0.479170,-0.782610,-0.397388,0.004560,0.002154,0.006519,-20.129288,25.244080,44.635376,,,,,,
1484030203.685600,-0.880930,0.898026,0.160534,-0.075308,-0.182726,0.006798,-0.480659,-0.782099,-0.396597,0.004630,0.002405,0.003454,-20.055786,24.943970,44.636963,,,,,,
1484030203.705619,-0.883636,0.897234,0.159171,-0.073227,-0.175278,0.006704,-0.482209,-0.781604,-0.395688,0.002213,0.002170,0.006833,-20.281158,24.869263,44.637024,,,,,,
1484030203.725608,-0.886187,0.896623,0.158047,-0.062717,-0.152892,0.005370,-0.483587,-0.781223,-0.394759,0.003545,0.001133,0.008513,-20.205002,25.094299,44.710999,,,,,,
1484030203.745628,-0.888508,0.896139,0.157341,-0.048045,-0.116670,0.004931,-0.484795,-0.780921,-0.393873,0.003289,0.004707,0.010969,-20.205002,25.094299,44.710999,,,,,,
1484030203.765617,-0.890236,0.896046,0.157103,-0.026038,-0.061274,0.002125,-0.485531,-0.780863,-0.393080,0.001919,0.000864,0.011504,-19.903793,25.319092,44.860352,,,,,,
1484030203.785636,-0.890811,0.896018,0.156942,-0.008183,-0.013150,-0.000793,-0.485774,-0.780846,-0.392815,0.003810,0.002800,0.009041,-21.029160,25.245789,44.859009,,,,,,
1484030203.805625,-0.891188,0.896504,0.157731,0.020131,0.053977,-0.001604,-0.485627,-0.781149,-0.392393,0.002046,0.005041,0.011778,-20.354950,25.094604,44.785767,,,,,,
1484030203.825645,-0.890239,0.897078,0.158654,0.041107,0.104058,-0.004342,-0.484906,-0.781507,-0.392572,0.001599,0.003309,0.008493,-20.504562,25.169983,44.860168,,,,,,
1484030203.845634,-0.888938,0.898372,0.161260,0.103957,0.263849,-0.009482,-0.483609,-0.782314,-0.392564,-0.002734,0.005138,0.021227,-20.504562,25.169983,44.860168,,,,,,
1484030203.865654,-0.884817,0.900997,0.167880,0.228396,0.730921,0.041205,-0.480396,-0.783947,-0.393252,-0.006161,0.015209,0.042681,-20.505417,25.019592,44.635925,,,,,,
1484030203.885643,-0.872323,0.902732,0.176852,0.288019,1.015896,0.094123,-0.474404,-0.785022,-0.398348,-0.010002,0.041538,0.014208,-20.355698,24.944641,44.786560,,,,,,
1484030203.905662,-0.861694,0.906247,0.184402,0.275752,0.695293,-0.012582,-0.468046,-0.787195,-0.401569,0.025114,-0.050879,0.011844,-20.354660,25.169373,44.635376,,,,,,
1484030203.925651,-0.855721,0.908879,0.188682,0.139568,0.355455,-0.011660,-0.464073,-0.788815,-0.402998,0.007164,0.003445,-0.033968,-20.205704,24.944458,44.786743,,,,,,
1484030203.945671,-0.851331,0.910115,0.190180,0.087195,0.221233,-0.005762,-0.461566,-0.789574,-0.404388,0.006137,0.003365,-0.010590,-20.205704,24.944458,44.786743,,,,,,
1484030203.965660,-0.848817,0.911220,0.191925,0.074643,0.187152,-0.005346,-0.459892,-0.790252,-0.404970,0.001808,0.005676,-0.001127,-20.581284,24.869446,44.411560,,,,,,
1484030203.985679,-0.846387,0.912324,0.193410,0.067285,0.172225,-0.005169,-0.458253,-0.790928,-0.405508,0.002428,0.003178,0.001257,-20.204956,25.094421,44.786011,,,,,,
1484030204.005668,-0.844299,0.913248,0.194852,0.060999,0.156245,-0.003909,-0.456859,-0.791493,-0.405978,0.004421,0.004246,0.001132,-20.055084,25.093811,44.561279,,,,,,
1484030204.025688,-0.842333,0.914098,0.196085,0.055777,0.141339,-0.004792,-0.455558,-0.792012,-0.406428,0.002829,0.005697,0.001658,-20.128540,25.394043,44.634583,,,,,,
1484030204.045677,-0.840674,0.914851,0.197264,0.049501,0.124298,-0.004584,-0.454438,-0.792472,-0.406785,0.002443,0.004890,0.001054,-20.128540,25.394043,44.634583,,,,,,
1484030204.065696,-0.839090,0.915517,0.198206,0.043202,0.110442,-0.004419,-0.453401,-0.792878,-0.407152,0.003877,0.004273,-0.000212,-20.356125,24.869507,44.711914,,,,,,
1484030204.085685,-0.837647,0.916056,0.198943,0.035856,0.093392,-0.003147,-0.452495,-0.793206,-0.407520,0.003292,0.004571,0.001316,-20.281204,24.869141,44.562073,,,,,,
,,,,,,,,,,,,,,,,33.759123,-118.389362,312.314453,0.380000,226.406250,1484030204.004411
1484030204.105705,-0.836446,0.916672,0.199579,0.027428,0.078455,-0.001907,-0.451643,-0.793581,-0.407735,0.004697,0.003481,0.004308,-20.129257,25.244202,44.710388,,,,,,
1484030204.125694,-0.835340,0.917100,0.199999,0.023262,0.064618,-0.001736,-0.450940,-0.793841,-0.408007,0.004956,0.004321,0.000719,-20.128906,25.319092,44.634949,,,,,,
1484030204.145713,-0.834579,0.917493,0.200409,0.019115,0.048659,-0.002603,-0.450398,-0.794080,-0.408140,0.003834,0.004468,0.001753,-20.128906,25.319092,44.634949,,,,,,
1484030204.165702,-0.833886,0.917713,0.200609,0.010676,0.034783,-0.000310,-0.449986,-0.794214,-0.408335,0.003071,0.005731,0.000636,-19.754211,25.243774,44.785950,,,,,,
1484030204.185722,-0.833432,0.917905,0.200706,0.005454,0.019876,-0.001194,-0.449687,-0.794331,-0.408436,0.004634,0.004322,0.001179,-20.129715,25.168945,44.560791,,,,,,
1484030204.205711,-0.833009,0.917954,0.200559,0.000229,0.004968,-0.001011,-0.449485,-0.794361,-0.408600,0.004127,0.005405,0.001435,-19.755112,25.093323,44.486694,,,,,,
1484030204.225730,-0.832792,0.917886,0.200313,-0.005027,-0.005693,-0.000885,-0.449437,-0.794319,-0.408734,0.002552,0.005257,-0.000797,-20.430038,25.094482,44.635620,,,,,,
1484030204.245719,-0.832749,0.917764,0.200036,-0.010294,-0.015294,0.000294,-0.449491,-0.794245,-0.408819,0.002637,0.006342,0.000860,-20.430038,25.094482,44.635620,,,,,,
1484030204.265739,-0.832888,0.917676,0.199800,-0.008150,-0.016336,-0.000753,-0.449600,-0.794191,-0.408803,0.003814,0.004732,0.002126,-20.279663,25.169250,44.635498,,,,,,
1484030204.285728,-0.833213,0.917647,0.199713,-0.007086,-0.016328,0.000316,-0.449750,-0.794174,-0.408673,0.005032,0.004699,0.006924,-19.904861,25.168152,44.261047,,,,,,
1484030204.305748,-0.833416,0.917651,0.199606,-0.006057,-0.011011,0.000248,-0.449830,-0.794176,-0.408579,0.003602,0.004137,0.007151,-20.130341,25.093201,44.036133,,,,,,
1484030204.325737,-0.833614,0.917627,0.199610,-0.002903,-0.004614,0.000173,-0.449925,-0.794161,-0.408503,0.001195,0.003970,0.003489,-19.980331,25.092957,44.036377,,,,,,
1484030204.345726,-0.833591,0.917673,0.199581,0.000243,0.002845,0.000082,-0.449889,-0.794190,-0.408489,0.003737,0.004471,0.002834,-19.980331,25.092957,44.036377,,,,,,
1484030204.365745,-0.833486,0.917748,0.199628,0.002325,0.010295,-0.001077,-0.449801,-0.794235,-0.408496,0.002337,0.004868,0.002429,-19.980453,25.018677,44.561768,,,,,,
1484030204.385734,-0.833321,0.917813,0.199686,0.002329,0.010296,-0.002144,-0.449696,-0.794275,-0.408535,0.002308,0.003946,0.002606,-19.905106,25.093506,44.486450,,,,,,
1484030204.405754,-0.833154,0.917877,0.199736,0.002315,0.011356,-0.000025,-0.449590,-0.794314,-0.408577,0.002767,0.005678,0.004112,-20.205078,25.094055,44.561035,,,,,,
1484030204.425743,-0.833002,0.917950,0.199741,0.000223,0.006031,-0.001027,-0.449485,-0.794358,-0.408606,0.003089,0.003220,0.003088,-20.580704,24.945007,44.786194,,,,,,
1484030204.445762,-0.832896,0.917967,0.199700,-0.000815,0.001774,0.000093,-0.449432,-0.794368,-0.408645,0.002258,0.004680,0.001815,-20.580704,24.945007,44.786194,,,,,,
1484030204.465751,-0.832860,0.917954,0.199627,-0.001840,-0.003542,-0.000906,-0.449424,-0.794361,-0.408668,0.004539,0.005603,0.002601,-19.681610,24.793213,44.488342,,,,,,
1484030204.485771,-0.832913,0.917890,0.199564,-0.003972,-0.004624,0.001236,-0.449484,-0.794322,-0.408678,0.002508,0.004756,0.004183,-20.130081,25.093933,44.561157,,,,,,
1484030204.505738,-0.832972,0.917884,0.199536,-0.002925,-0.001429,0.000129,-0.449512,-0.794318,-0.408655,0.003238,0.003394,0.003946,-19.905029,25.093689,44.636414,,,,,,
1484030204.525757,-0.833009,0.917893,0.199525,-0.001863,-0.000357,-0.000948,-0.449521,-0.794324,-0.408633,0.003492,0.003689,0.003649,-20.204636,25.169312,44.710632,,,,,,
1484030204.545746,-0.832923,0.917897,0.199474,0.000251,0.002847,-0.002052,-0.449484,-0.794326,-0.408669,0.002249,0.005599,0.002053,-20.204636,25.169312,44.710632,,,,,,
1484030204.565766,-0.832909,0.917928,0.199520,0.000232,0.004969,-0.001013,-0.449460,-0.794345,-0.408659,0.001492,0.005267,0.004332,-19.680756,24.943542,44.712524,,,,,,
1484030204.585755,-0.832840,0.917948,0.199523,-0.001888,0.002827,0.000076,-0.449420,-0.794357,-0.408679,0.002658,0.005844,0.002506,-19.905533,25.018372,44.411865,,,,,,
1484030204.605774,-0.832737,0.917997,0.199489,0.000244,0.003909,-0.002066,-0.449349,-0.794387,-0.408700,0.003869,0.003020,0.002495,-20.129257,25.244202,44.710388,,,,,,
1484030204.625763,-0.832616,0.917980,0.199420,-0.001877,0.001766,-0.000977,-0.449309,-0.794376,-0.408763,0.003081,0.003574,0.002086,-20.055420,25.018921,44.636597,,,,,,
1484030204.645783,-0.832604,0.917975,0.199412,-0.001877,0.001766,-0.000977,-0.449307,-0.794374,-0.408771,0.003919,0.006822,0.003162,-20.055420,25.018921,44.636597,,,,,,
1484030204.665772,-0.832550,0.917967,0.199372,-0.000800,0.000715,-0.002026,-0.449291,-0.794368,-0.408800,0.002376,0.005092,0.001497,-20.129211,25.244324,44.785400,,,,,,
1484030204.685791,-0.832595,0.917978,0.199390,0.000272,-0.000338,-0.000943,-0.449302,-0.794375,-0.408774,0.002021,0.004397,0.004095,-20.129669,25.169067,44.635742,,,,,,
1484030204.705780,-0.832583,0.918008,0.199393,-0.001880,0.001765,0.000090,-0.449280,-0.794393,-0.408763,0.002747,0.003179,0.004146,-19.904953,25.093933,44.786438,,,,,,
1484030204.725800,-0.832598,0.918019,0.199428,-0.000818,0.002837,-0.000988,-0.449279,-0.794400,-0.408750,0.000793,0.004956,0.003599,-19.678955,25.318298,44.560730,,,,,,
1484030204.745789,-0.832638,0.918034,0.199490,-0.000809,0.001775,-0.000974,-0.449287,-0.794409,-0.408724,0.004234,0.005331,0.003878,-19.678955,25.318298,44.560730,,,,,,
1484030204.765809,-0.832688,0.918069,0.199532,-0.000805,0.000713,0.000107,-0.449286,-0.794431,-0.408683,0.001975,0.004834,0.005119,-19.904327,25.243591,44.560730,,,,,,
1484030204.785798,-0.832732,0.918139,0.199575,0.001390,0.000911,-0.000073,-0.449263,-0.794473,-0.408626,0.002455,0.004449,0.003246,-20.279663,25.169250,44.635498,,,,,,
1484030204.805817,-0.832689,0.918108,0.199556,-0.002891,0.002996,-0.000112,-0.449264,-0.794454,-0.408662,0.002029,0.005361,0.003465,-20.203979,25.319031,44.484924,,,,,,
1484030204.825806,-0.832664,0.918173,0.199555,0.000327,0.000902,-0.001142,-0.449216,-0.794494,-0.408638,0.004010,0.003249,0.003533,-20.130417,25.019043,44.636475,,,,,,
1484030204.845826,-0.832645,0.918168,0.199555,-0.000747,0.001955,-0.001159,-0.449211,-0.794491,-0.408649,0.000954,0.004192,0.004200,-20.130417,25.019043,44.636475,,,,,,
1484030204.865815,-0.832588,0.918197,0.199532,-0.000754,0.003016,-0.001173,-0.449171,-0.794508,-0.408660,0.003263,0.005049,0.001616,-19.905228,25.093140,44.261414,,,,,,
1484030204.885834,-0.832548,0.918217,0.199518,-0.000746,0.001955,-0.001159,-0.449142,-0.794520,-0.408667,0.001816,0.004161,0.004050,-19.829559,25.168945,44.861206,,,,,,
1484030204.905823,-0.832452,0.918231,0.199467,0.000320,0.001964,-0.001156,-0.449095,-0.794529,-0.408703,0.002546,0.004398,0.002941,-20.580185,25.094299,44.335449,,,,,,
1484030204.925843,-0.832424,0.918282,0.199460,-0.001824,0.003006,-0.000110,-0.449054,-0.794559,-0.408688,0.002460,0.004902,0.004025,-19.905075,25.093567,44.561462,,,,,,
1484030204.945832,-0.832448,0.918320,0.199482,-0.001820,0.003007,-0.001177,-0.449041,-0.794583,-0.408657,0.002371,0.005017,0.002804,-19.905075,25.093567,44.561462,,,,,,
1484030204.965851,-0.832481,0.918313,0.199506,-0.000745,0.001954,-0.001159,-0.449059,-0.794578,-0.408646,0.002510,0.004784,0.004318,-20.054962,25.094177,44.786255,,,,,,
1484030204.985840,-0.832466,0.918276,0.199502,-0.000745,0.001954,-0.001159,-0.449074,-0.794556,-0.408672,0.001198,0.003449,0.002087,-20.055038,25.093933,44.636230,,,,,,
1484030205.005860,-0.832417,0.918343,0.199496,0.000306,0.004087,-0.001185,-0.449015,-0.794597,-0.408658,0.003046,0.003398,0.004606,-20.205719,25.018311,44.036377,,,,,,
1484030205.025849,-0.832347,0.918347,0.199467,-0.002870,0.000874,-0.001151,-0.448984,-0.794599,-0.408688,0.002512,0.004758,0.003460,-20.129288,25.244080,44.635376,,,,,,
1484030205.045868,-0.832332,0.918400,0.199482,0.000322,0.001964,-0.001157,-0.448947,-0.794631,-0.408666,0.001941,0.005798,0.004659,-20.129288,25.244080,44.635376,,,,,,
,,,,,,,,,,,,,,,,33.759122,-118.389368,310.898804,0.160000,-1.000000,1484030205.004411
1484030205.065857,-0.832408,0.918364,0.199562,0.001393,0.000910,-0.000073,-0.448999,-0.794610,-0.408651,0.001535,0.006218,0.002783,-20.130859,24.943909,44.486877,,,,,,
1484030205.085877,-0.832387,0.918369,0.199540,0.000333,0.000903,-0.002209,-0.448987,-0.794613,-0.408658,0.002073,0.004970,0.002560,-20.429214,25.244751,44.784912,,,,,,
1484030205.105866,-0.832371,0.918352,0.199523,-0.000732,-0.000170,-0.000064,-0.448991,-0.794602,-0.408674,0.000871,0.004182,0.003980,-19.905106,25.093506,44.486450,,,,,,
1484030205.125885,-0.832341,0.918351,0.199488,-0.002827,0.001013,-0.000248,-0.448979,-0.794602,-0.408688,0.001805,0.005280,0.001813,-20.054749,25.168762,44.485901,,,,,,
1484030205.145874,-0.832370,0.918359,0.199525,-0.000698,0.002094,-0.001323,-0.448986,-0.794607,-0.408671,0.002361,0.005391,0.003260,-20.054749,25.168762,44.485901,,,,,,
1484030205.165894,-0.832268,0.918412,0.199467,0.000371,0.002105,-0.002387,-0.448913,-0.794639,-0.408688,0.002914,0.004050,0.002057,-20.653976,25.319702,44.484192,,,,,,
1484030205.185883,-0.832175,0.918433,0.199441,0.000357,0.003164,-0.000268,-0.448863,-0.794651,-0.408719,0.002910,0.004887,0.003263,-20.280975,24.943726,44.261597,,,,,,
1484030205.205903,-0.832106,0.918453,0.199432,-0.000720,0.004215,0.000782,-0.448823,-0.794663,-0.408739,0.004869,0.005235,0.004107,-20.130081,25.093933,44.561157,,,,,,
1484030205.225892,-0.832107,0.918408,0.199454,-0.001775,0.003145,-0.000273,-0.448850,-0.794636,-0.408763,0.000577,0.005650,0.002788,-19.830490,25.018372,44.486938,,,,,,
1484030205.245911,-0.832142,0.918375,0.199485,-0.002831,0.002075,-0.001329,-0.448884,-0.794616,-0.408765,0.001603,0.006622,0.005170,-19.830490,25.018372,44.486938,,,,,,
1484030205.265900,-0.832128,0.918406,0.199480,0.000384,-0.000020,-0.001292,-0.448860,-0.794635,-0.408754,0.002052,0.004382,0.003390,-20.055191,25.093506,44.336243,,,,,,
1484030205.285920,-0.832135,0.918438,0.199470,-0.001781,0.002076,-0.001404,-0.448844,-0.794654,-0.408734,0.004234,0.004630,0.004819,-20.129669,25.169067,44.635742,,,,,,
1484030205.305909,-0.832187,0.918410,0.199520,0.000342,0.003155,-0.000345,-0.448882,-0.794637,-0.408726,0.000334,0.005529,0.003819,-19.904327,25.243591,44.560730,,,,,,
1484030205.325928,-0.832205,0.918431,0.199553,-0.000714,0.002085,-0.001401,-0.448877,-0.794650,-0.408707,0.001444,0.004748,0.003616,-20.354706,25.169250,44.560425,,,,,,
1484030205.345917,-0.832157,0.918397,0.199553,-0.000729,0.004208,-0.001429,-0.448877,-0.794629,-0.408746,0.001520,0.005018,0.002542,-20.354706,25.169250,44.560425,,,,,,
1484030205.365937,-0.832107,0.918366,0.199558,-0.000729,0.004208,-0.001428,-0.448875,-0.794611,-0.408785,0.002540,0.006372,0.003817,-20.429825,25.169067,44.335266,,,,,,
1484030205.385926,-0.832094,0.918362,0.199581,-0.001785,0.003138,-0.002484,-0.448871,-0.794608,-0.408793,0.002064,0.003501,0.003108,-20.204956,25.094421,44.786011,,,,,,
1484030205.405945,-0.832063,0.918391,0.199584,-0.001791,0.003136,-0.000350,-0.448842,-0.794626,-0.408792,0.002370,0.006128,0.003656,-20.205261,25.019653,44.936401,,,,,,
1484030205.425934,-0.832101,0.918437,0.199604,0.000372,-0.000028,-0.002435,-0.448831,-0.794654,-0.408750,0.004159,0.002219,0.004026,-20.281281,24.868958,44.412048,,,,,,
1484030205.445923,-0.832102,0.918402,0.199589,-0.002880,-0.000105,-0.000372,-0.448851,-0.794632,-0.408768,0.001571,0.005829,0.002305,-20.281281,24.868958,44.412048,,,,,,
1484030205.465943,-0.832093,0.918380,0.199579,0.000307,0.002047,-0.001458,-0.448861,-0.794619,-0.408784,0.001809,0.005145,0.002244,-20.280487,25.019043,44.486267,,,,,,
1484030205.485932,-0.832111,0.918394,0.199602,0.000297,0.003107,-0.000406,-0.448860,-0.794628,-0.408768,0.002159,0.004573,0.004777,-20.055618,25.018372,44.261597,,,,,,
1484030205.505951,-0.832086,0.918401,0.199608,-0.001825,0.002028,-0.001464,-0.448845,-0.794632,-0.408776,0.001671,0.004578,0.003167,-20.206284,24.868896,44.412109,,,,,,
1484030205.525940,-0.832042,0.918488,0.199611,0.000300,0.003108,-0.001472,-0.448777,-0.794685,-0.408749,0.003724,0.003699,0.003338,-20.203949,25.319092,44.559937,,,,,,
1484030205.545960,-0.832001,0.918472,0.199626,-0.000772,0.003097,0.000658,-0.448770,-0.794675,-0.408776,0.001138,0.003812,0.002007,-20.203949,25.319092,44.559937,,,,,,
1484030205.565949,-0.832005,0.918478,0.199630,-0.000747,0.000977,-0.002513,-0.448767,-0.794679,-0.408771,0.002066,0.005220,0.004184,-20.131165,24.869080,44.637207,,,,,,
1484030205.585968,-0.831918,0.918508,0.199566,-0.001828,0.002027,-0.000397,-0.448714,-0.794697,-0.408794,0.004485,0.003224,0.003780,-20.053955,25.318848,44.560120,,,,,,
1484030205.605958,-0.831854,0.918518,0.199498,-0.001879,0.000841,-0.001496,-0.448682,-0.794703,-0.408817,0.002546,0.003947,0.002811,-19.830231,25.093018,44.261536,,,,,,
1484030205.625978,-0.831848,0.918485,0.199489,-0.001878,0.000841,-0.001496,-0.448699,-0.794683,-0.408838,0.001098,0.004949,0.002939,-20.355377,25.019470,44.711121,,,,,,
1484030205.645967,-0.831868,0.918452,0.199487,-0.000804,-0.000211,-0.001479,-0.448726,-0.794663,-0.408846,0.002041,0.005204,0.001894,-20.355377,25.019470,44.711121,,,,,,
1484030205.665987,-0.831880,0.918479,0.199503,-0.001878,0.000841,-0.001496,-0.448715,-0.794679,-0.408827,0.001099,0.003725,0.003706,-19.680908,24.943115,44.412537,,,,,,
1484030205.685976,-0.831791,0.918482,0.199451,-0.000819,0.001912,-0.001507,-0.448678,-0.794681,-0.408865,0.002175,0.005954,0.002966,-19.906525,24.793701,44.637939,,,,,,
1484030205.705995,-0.831838,0.918492,0.199524,0.000248,0.001921,-0.001504,-0.448691,-0.794687,-0.408838,0.000723,0.005076,0.004557,-20.205704,24.944458,44.786743,,,,,,
1484030205.725984,-0.831775,0.918527,0.199481,0.000256,0.000859,-0.001490,-0.448645,-0.794708,-0.408848,0.002722,0.004089,0.002445,-20.131012,24.869568,44.937256,,,,,,
1484030205.746003,-0.831755,0.918567,0.199480,-0.000811,0.000850,-0.001493,-0.448613,-0.794732,-0.408836,0.003575,0.004190,0.002433,-20.131012,24.869568,44.937256,,,,,,
1484030205.765992,-0.831783,0.918573,0.199486,-0.000881,0.000700,-0.001528,-0.448620,-0.794736,-0.408820,0.001202,0.005766,0.002829,-19.679031,25.318115,44.410706,,,,,,
1484030205.786011,-0.831724,0.918538,0.199429,-0.000874,-0.000361,-0.001513,-0.448617,-0.794715,-0.408865,0.001595,0.006431,0.001577,-20.129440,25.243652,44.335388,,,,,,
1484030205.806000,-0.831610,0.918531,0.199338,-0.001959,0.001751,-0.000478,-0.448575,-0.794711,-0.408920,0.002698,0.004046,0.001815,-20.054291,25.243958,44.635437,,,,,,
1484030205.826020,-0.831576,0.918488,0.199305,-0.001956,0.001752,-0.001544,-0.448586,-0.794684,-0.408958,0.001031,0.005912,0.001778,-19.904587,25.168945,44.786072,,,,,,
1484030205.846009,-0.831586,0.918458,0.199315,-0.000889,0.001762,-0.001541,-0.448607,-0.794667,-0.408970,0.000686,0.004978,0.001652,-19.904587,25.168945,44.786072,,,,,,
1484030205.866029,-0.831582,0.918434,0.199307,-0.000885,0.000699,-0.000460,-0.448620,-0.794652,-0.408985,0.001965,0.005467,0.003330,-19.830383,25.018677,44.711914,,,,,,
1484030205.886018,-0.831610,0.918441,0.199315,-0.001951,0.000690,-0.000463,-0.448627,-0.794656,-0.408968,0.001316,0.005197,0.004274,-20.279205,25.244507,44.785156,,,,,,
1484030205.906038,-0.831589,0.918419,0.199308,0.000181,0.001772,-0.002604,-0.448632,-0.794643,-0.408989,0.001595,0.003215,0.003106,-19.904404,25.243408,44.410706,,,,,,
1484030205.926027,-0.831574,0.918391,0.199307,0.000098,0.002675,-0.001577,-0.448642,-0.794626,-0.409011,0.002719,0.005960,0.002929,-19.979172,25.244202,44.860596,,,,,,
1484030205.946045,-0.831447,0.918353,0.199221,-0.002039,0.002655,-0.000517,-0.448612,-0.794603,-0.409088,0.001728,0.005663,0.002746,-19.979172,25.244202,44.860596,,,,,,
1484030205.966034,-0.831399,0.918380,0.199194,-0.000973,0.003728,-0.002661,-0.448577,-0.794619,-0.409096,0.002501,0.002520,0.003563,-19.830750,24.943726,44.712341,,,,,,
1484030205.986054,-0.831394,0.918385,0.199196,0.000110,0.000551,-0.000482,-0.448572,-0.794622,-0.409095,0.002863,0.004812,0.002860,-19.755493,25.018311,44.487061,,,,,,
1484030206.006043,-0.831380,0.918357,0.199177,-0.000964,0.001603,-0.000499,-0.448582,-0.794605,-0.409116,0.000798,0.005131,0.003187,-20.206360,24.868652,44.262085,,,,,,
1484030206.026062,-0.831412,0.918326,0.199196,-0.002022,0.000532,-0.000488,-0.448614,-0.794586,-0.409119,0.002264,0.005737,0.003418,-19.680756,24.943542,44.712524,,,,,,
1484030206.046052,-0.831425,0.918319,0.199201,-0.000963,0.001603,-0.000499,-0.448623,-0.794582,-0.409116,0.001526,0.003429,0.003935,-19.680756,24.943542,44.712524,,,,,,
1484030206.066072,-0.831494,0.918285,0.199238,0.000107,0.001613,-0.001562,-0.448672,-0.794561,-0.409104,-0.000761,0.005529,0.003571,-19.904587,25.168945,44.786072,,,,,,
1484030206.086061,-0.831536,0.918278,0.199266,0.000038,0.000442,-0.001567,-0.448693,-0.794557,-0.409089,0.000527,0.006822,0.003586,-20.129715,25.168945,44.560791,,,,,,
,,,,,,,,,,,,,,,,33.759122,-118.389368,314.066895,0.000000,225.351562,1484030206.004411
1484030206.106081,-0.831528,0.918279,0.199269,-0.002113,0.002545,-0.000535,-0.448689,-0.794558,-0.409092,0.001317,0.003832,0.003559,-19.980072,25.093689,44.561401,,,,,,
1484030206.126070,-0.831551,0.918278,0.199302,0.001097,0.001512,-0.001578,-0.448699,-0.794557,-0.409082,0.003234,0.005693,0.003244,-20.206802,24.793396,44.112549,,,,,,
1484030206.146089,-0.831526,0.918319,0.199303,-0.002116,0.002544,0.000532,-0.448665,-0.794582,-0.409071,0.002391,0.003185,0.004011,-20.206802,24.793396,44.112549,,,,,,
1484030206.166078,-0.831519,0.918343,0.199310,0.001098,0.001512,-0.001578,-0.448648,-0.794597,-0.409061,0.002222,0.004130,0.004475,-20.055161,25.093628,44.411255,,,,,,
1484030206.186098,-0.831617,0.918370,0.199405,0.000029,0.001502,-0.000514,-0.448672,-0.794613,-0.409003,-0.000699,0.003628,0.005362,-20.205460,25.019043,44.561401,,,,,,
1484030206.206086,-0.831668,0.918329,0.199445,-0.001030,0.000431,-0.000503,-0.448717,-0.794588,-0.409002,0.001085,0.003466,0.003790,-19.681137,24.868530,44.712891,,,,,,
1484030206.226105,-0.831654,0.918356,0.199411,-0.002093,0.000422,-0.001572,-0.448695,-0.794604,-0.408994,0.002544,0.004031,0.002882,-19.680908,24.943115,44.412537,,,,,,
1484030206.246094,-0.831696,0.918322,0.199414,-0.000017,-0.001850,-0.000485,-0.448732,-0.794584,-0.408993,0.000887,0.003614,0.002331,-19.680908,24.943115,44.412537,,,,,,
1484030206.266114,-0.831673,0.918329,0.199369,-0.002170,0.001317,-0.001600,-0.448719,-0.794588,-0.409000,0.002506,0.005022,0.004382,-19.755386,25.018616,44.712036,,,,,,
1484030206.286103,-0.831663,0.918304,0.199344,-0.002166,0.000255,-0.000519,-0.448730,-0.794573,-0.409018,0.001494,0.005022,0.002020,-20.505035,25.094604,44.635559,,,,,,
1484030206.306123,-0.831707,0.918320,0.199389,-0.001107,0.001325,-0.000530,-0.448738,-0.794582,-0.408990,0.001091,0.004666,0.003823,-20.056168,24.868958,44.637329,,,,,,
1484030206.326112,-0.831706,0.918305,0.199419,-0.001114,0.002387,-0.000544,-0.448747,-0.794574,-0.408998,0.001389,0.005267,0.003602,-19.830536,25.018250,44.411926,,,,,,
1484030206.346132,-0.831680,0.918277,0.199426,-0.001117,0.002386,0.000523,-0.448752,-0.794556,-0.409025,0.002448,0.005692,0.001463,-19.830536,25.018250,44.411926,,,,,,
1484030206.366121,-0.831720,0.918289,0.199451,-0.001111,0.002388,-0.001610,-0.448762,-0.794564,-0.409000,0.002412,0.003518,0.004551,-20.130310,25.019409,44.861511,,,,,,
1484030206.386139,-0.831705,0.918300,0.199418,-0.002161,0.000255,-0.001585,-0.448749,-0.794570,-0.409001,0.002964,0.004135,0.004323,-19.981277,24.868530,44.412476,,,,,,
1484030206.406128,-0.831736,0.918265,0.199407,-0.002222,-0.000973,-0.001580,-0.448782,-0.794549,-0.409006,0.001486,0.003396,0.002817,-19.979401,25.243530,44.410583,,,,,,
1484030206.426148,-0.831740,0.918298,0.199381,-0.000088,-0.000954,-0.001574,-0.448764,-0.794569,-0.408986,0.003147,0.004958,0.003591,-19.904999,25.093811,44.711426,,,,,,
1484030206.446137,-0.831817,0.918302,0.199424,-0.001165,0.000097,-0.000524,-0.448794,-0.794572,-0.408950,0.000674,0.005570,0.004088,-19.904999,25.093811,44.711426,,,,,,
1484030206.466156,-0.831850,0.918288,0.199446,-0.002240,0.001149,-0.000541,-0.448815,-0.794563,-0.408943,0.001107,0.005577,0.003440,-20.282288,24.644226,44.638123,,,,,,
1484030206.486145,-0.831924,0.918283,0.199522,-0.000103,0.001168,-0.001601,-0.448848,-0.794560,-0.408912,0.001064,0.004674,0.004447,-20.204285,25.244202,44.635254,,,,,,
1484030206.506144,-0.831888,0.918311,0.199498,-0.001169,0.001159,-0.001604,-0.448818,-0.794577,-0.408913,0.003078,0.004782,0.003151,-20.053909,25.318970,44.635071,,,,,,
1484030206.526133,-0.831879,0.918335,0.199506,-0.003313,0.002200,-0.000558,-0.448800,-0.794592,-0.408904,0.002892,0.005011,0.003845,-19.977676,25.544189,44.859131,,,,,,
1484030206.546153,-0.831875,0.918322,0.199511,-0.001172,0.001157,-0.000537,-0.448806,-0.794584,-0.408913,0.001784,0.005048,0.003869,-19.977676,25.544189,44.859131,,,,,,
1484030206.566142,-0.831822,0.918353,0.199444,-0.002290,-0.000016,-0.001597,-0.448766,-0.794603,-0.408920,0.001637,0.004686,0.003005,-19.905380,25.018799,44.711853,,,,,,
1484030206.586131,-0.831791,0.918384,0.199392,-0.001231,0.001055,-0.001609,-0.448735,-0.794622,-0.408917,0.002095,0.002752,0.003568,-19.828827,25.318848,44.785461,,,,,,
1484030206.606150,-0.831759,0.918354,0.199327,-0.003353,-0.000024,-0.002667,-0.448739,-0.794603,-0.408948,0.001611,0.003908,0.002378,-19.903503,25.393799,44.709961,,,,,,
1484030206.626139,-0.831781,0.918363,0.199307,-0.002282,-0.001078,-0.001583,-0.448743,-0.794609,-0.408934,0.003583,0.003807,0.004103,-19.904282,25.243713,44.635681,,,,,,
1484030206.646159,-0.831829,0.918391,0.199321,-0.002300,0.001044,-0.000545,-0.448747,-0.794626,-0.408897,0.002229,0.004129,0.004920,-19.904282,25.243713,44.635681,,,,,,
1484030206.666148,-0.831833,0.918366,0.199318,-0.001237,0.001052,0.000525,-0.448763,-0.794611,-0.408908,0.001314,0.005640,0.002246,-20.354919,25.094727,44.860779,,,,,,
1484030206.686167,-0.831834,0.918368,0.199317,-0.001222,-0.000007,-0.001594,-0.448762,-0.794612,-0.408907,0.001847,0.004100,0.003939,-20.056213,24.942749,43.812012,,,,,,
1484030206.706156,-0.831767,0.918410,0.199269,-0.001227,0.001055,-0.002675,-0.448710,-0.794637,-0.408915,0.002268,0.003667,0.002832,-20.354279,25.244385,44.635010,,,,,,
1484030206.726176,-0.831790,0.918421,0.199297,-0.000231,0.002049,-0.000554,-0.448713,-0.794644,-0.408898,0.002378,0.004834,0.004495,-20.580856,24.944580,44.486206,,,,,,
1484030206.746165,-0.831782,0.918394,0.199279,-0.002346,-0.000092,-0.001598,-0.448726,-0.794627,-0.408916,-0.000249,0.005214,0.002941,-20.580856,24.944580,44.486206,,,,,,
1484030206.766184,-0.831836,0.918421,0.199299,-0.001286,0.000979,-0.001609,-0.448731,-0.794644,-0.408877,0.001206,0.002942,0.006213,-20.205414,25.019165,44.636353,,,,,,
1484030206.786173,-0.831814,0.918415,0.199263,0.000855,-0.000064,-0.001589,-0.448726,-0.794640,-0.408891,0.001430,0.004738,0.000062,-19.979874,25.094299,44.936401,,,,,,
1484030206.806193,-0.831807,0.918420,0.199223,-0.000209,-0.000073,-0.002659,-0.448721,-0.794643,-0.408891,0.002981,0.005031,0.003892,-20.579178,25.245117,44.859680,,,,,,
1484030206.826182,-0.831754,0.918434,0.199162,-0.003427,0.002021,-0.001629,-0.448691,-0.794652,-0.408907,0.001577,0.002980,0.002138,-20.729111,25.245483,44.934509,,,,,,
1484030206.846201,-0.831698,0.918433,0.199120,-0.002360,0.002031,-0.001626,-0.448668,-0.794651,-0.408933,0.001357,0.003727,0.001783,-20.729111,25.245483,44.934509,,,,,,
1484030206.866190,-0.831663,0.918396,0.199079,-0.001286,0.000979,-0.001609,-0.448676,-0.794629,-0.408968,0.001013,0.004910,0.003146,-20.204865,25.168640,44.260620,,,,,,
1484030206.886210,-0.831713,0.918433,0.199103,-0.002404,0.000909,-0.001610,-0.448674,-0.794652,-0.408926,0.001714,0.003560,0.004843,-20.054291,25.243958,44.635437,,,,,,
1484030206.906199,-0.831748,0.918458,0.199135,-0.001351,0.001977,0.000512,-0.448674,-0.794666,-0.408897,0.003575,0.005695,0.005104,-20.131210,24.868958,44.562256,,,,,,
1484030206.926218,-0.831673,0.918460,0.199046,-0.002403,0.000909,-0.001610,-0.448642,-0.794667,-0.408930,0.003147,0.005437,0.002741,-20.129959,25.094299,44.786133,,,,,,
1484030206.946207,-0.831648,0.918413,0.199007,-0.001329,-0.000143,-0.001593,-0.448660,-0.794639,-0.408966,0.000112,0.004157,0.001587,-20.129959,25.094299,44.786133,,,,,,
1484030206.966227,-0.831655,0.918419,0.198977,-0.002400,0.000910,-0.002676,-0.448659,-0.794643,-0.408960,0.001119,0.004650,0.004434,-20.206528,24.794189,44.637512,,,,,,
1484030206.986216,-0.831677,0.918419,0.198975,-0.001332,-0.000145,-0.000526,-0.448668,-0.794643,-0.408950,0.001799,0.003871,0.005034,-19.980148,25.093506,44.411377,,,,,,
1484030207.006236,-0.831650,0.918415,0.198934,-0.002406,0.000908,-0.000543,-0.448659,-0.794641,-0.408964,0.002309,0.005380,0.003797,-20.130035,25.094055,44.636108,,,,,,
1484030207.026225,-0.831655,0.918422,0.198923,-0.001328,-0.000144,-0.001593,-0.448657,-0.794644,-0.408958,0.001681,0.003904,0.003883,-20.130310,25.019409,44.861511,,,,,,
1484030207.046244,-0.831702,0.918432,0.198928,-0.000304,-0.001346,-0.000506,-0.448670,-0.794651,-0.408931,0.002793,0.005161,0.003277,-20.130310,25.019409,44.861511,,,,,,
,,,,,,,,,,,,,,,,33.759122,-118.389368,314.048889,0.000000,225.351562,1484030207.004410
1484030207.066233,-0.831718,0.918420,0.198933,-0.000319,0.000777,-0.000534,-0.448684,-0.794644,-0.408931,0.001754,0.004849,0.002879,-20.353668,25.320068,45.084656,,,,,,
1484030207.086253,-0.831749,0.918431,0.198933,-0.002449,0.000759,-0.001607,-0.448690,-0.794650,-0.408911,0.002447,0.002841,0.005225,-20.502930,25.470276,45.083679,,,,,,
1484030207.106242,-0.831836,0.918440,0.198998,-0.000319,0.000777,-0.000534,-0.448721,-0.794655,-0.408868,0.002264,0.005562,0.004983,-20.129562,25.169434,44.860779,,,,,,
1484030207.126261,-0.831771,0.918468,0.198936,-0.000318,0.000777,-0.000534,-0.448678,-0.794673,-0.408881,0.002587,0.003871,0.002784,-19.981873,24.718933,44.713196,,,,,,
1484030207.146250,-0.831761,0.918436,0.198926,-0.001379,0.000769,-0.002670,-0.448692,-0.794653,-0.408903,0.001305,0.003942,0.001387,-19.981873,24.718933,44.713196,,,,,,
1484030207.166270,-0.831741,0.918455,0.198897,-0.001385,0.000767,-0.000537,-0.448673,-0.794665,-0.408902,0.001987,0.004564,0.003506,-20.131317,24.868652,44.337219,,,,,,
1484030207.186259,-0.831744,0.918439,0.198887,-0.001377,-0.000294,-0.000523,-0.448684,-0.794655,-0.408909,0.001723,0.005134,0.002843,-19.980743,24.943970,44.712097,,,,,,
1484030207.206278,-0.831707,0.918359,0.198827,-0.002490,0.000621,-0.001602,-0.448715,-0.794606,-0.408969,0.000382,0.004720,0.001605,-20.130783,24.944092,44.636841,,,,,,
1484030207.226267,-0.831791,0.918362,0.198859,-0.002485,-0.000441,-0.000521,-0.448748,-0.794608,-0.408930,0.001772,0.003592,0.005609,-19.829956,25.093811,44.786560,,,,,,
1484030207.246287,-0.831788,0.918345,0.198818,-0.002471,-0.001501,-0.002640,-0.448757,-0.794598,-0.408940,0.002834,0.004269,0.002888,-19.829956,25.093811,44.786560,,,,,,
1484030207.266276,-0.831861,0.918408,0.198837,-0.000345,-0.000421,-0.002648,-0.448750,-0.794636,-0.408874,0.001194,0.004460,0.005935,-19.754929,25.093872,44.861694,,,,,,
1484030207.286295,-0.831805,0.918421,0.198773,-0.003566,0.001672,-0.000552,-0.448719,-0.794644,-0.408891,0.003391,0.004300,0.004136,-20.204559,25.169556,44.860657,,,,,,
1484030207.306284,-0.831800,0.918387,0.198763,-0.000366,0.001700,-0.000543,-0.448737,-0.794624,-0.408912,0.002066,0.005317,0.001792,-20.355698,24.944641,44.786560,,,,,,
1484030207.326304,-0.831774,0.918343,0.198739,-0.003558,0.000610,-0.000537,-0.448752,-0.794596,-0.408947,0.001456,0.004283,0.003582,-19.453796,25.318420,44.861023,,,,,,
1484030207.346293,-0.831806,0.918368,0.198749,-0.000355,0.000639,-0.001595,-0.448750,-0.794612,-0.408919,0.001012,0.003322,0.002929,-19.453796,25.318420,44.861023,,,,,,
1484030207.366312,-0.831830,0.918340,0.198753,-0.001450,-0.000558,-0.001578,-0.448777,-0.794595,-0.408923,0.001236,0.005822,0.003833,-19.978043,25.469177,44.859497,,,,,,
1484030207.386301,-0.831771,0.918308,0.198678,-0.000383,-0.000549,-0.001575,-0.448771,-0.794576,-0.408967,0.000773,0.005269,0.002381,-19.980484,25.018616,44.486755,,,,,,
1484030207.406321,-0.831790,0.918331,0.198655,-0.002524,0.000494,-0.001595,-0.448765,-0.794590,-0.408946,0.002476,0.005359,0.004359,-20.055008,25.094055,44.711243,,,,,,
1484030207.426310,-0.831804,0.918356,0.198657,-0.001457,0.000503,-0.001592,-0.448757,-0.794604,-0.408927,0.001491,0.004138,0.005271,-20.055618,25.018372,44.261597,,,,,,
1484030207.446330,-0.831811,0.918398,0.198640,-0.002520,0.000495,-0.002661,-0.448735,-0.794630,-0.408901,0.002568,0.002470,0.003063,-20.055618,25.018372,44.261597,,,,,,
1484030207.466319,-0.831817,0.918414,0.198629,-0.000398,0.001574,-0.001603,-0.448728,-0.794640,-0.408890,0.002607,0.005028,0.005097,-19.905411,25.018677,44.636841,,,,,,
1484030207.486338,-0.831859,0.918404,0.198647,-0.001456,0.000503,-0.001591,-0.448751,-0.794634,-0.408876,0.001974,0.006593,0.005434,-19.980377,25.018921,44.711731,,,,,,
1484030207.506314,-0.831805,0.918442,0.198606,-0.002531,0.001555,-0.001609,-0.448706,-0.794657,-0.408880,0.003867,0.005839,0.004980,-19.905380,25.018799,44.711853,,,,,,
1484030207.526334,-0.831852,0.918441,0.198623,-0.002561,0.001438,-0.001601,-0.448726,-0.794656,-0.408859,-0.000294,0.002649,0.003616,-20.129822,25.168640,44.335754,,,,,,
1484030207.546323,-0.831945,0.918442,0.198667,-0.003615,-0.000695,-0.000509,-0.448764,-0.794657,-0.408817,0.000995,0.004679,0.003056,-20.129822,25.168640,44.335754,,,,,,
1484030207.566342,-0.831936,0.918467,0.198625,-0.001476,-0.000674,-0.002636,-0.448745,-0.794672,-0.408808,0.001724,0.004862,0.002619,-20.356125,24.869507,44.711914,,,,,,
1484030207.586331,-0.831991,0.918467,0.198612,-0.002534,-0.001745,-0.002625,-0.448768,-0.794672,-0.408783,0.001655,0.004618,0.003388,-19.906235,24.868530,44.487610,,,,,,
1484030207.606351,-0.831967,0.918422,0.198573,-0.001486,0.000386,-0.001583,-0.448785,-0.794645,-0.408818,0.001916,0.006635,0.002202,-19.829285,25.243591,44.635803,,,,,,
1484030207.626340,-0.831942,0.918370,0.198543,-0.002556,0.000376,-0.000519,-0.448805,-0.794613,-0.408857,0.001677,0.005535,0.001234,-20.355026,25.094360,44.635742,,,,,,
1484030207.646359,-0.831957,0.918371,0.198550,-0.001494,0.001447,-0.001597,-0.448810,-0.794614,-0.408850,0.001850,0.006482,0.005438,-20.355026,25.094360,44.635742,,,,,,
1484030207.666348,-0.831946,0.918353,0.198530,-0.001489,0.000385,-0.000516,-0.448816,-0.794603,-0.408865,0.002894,0.004716,0.002142,-20.055084,25.093811,44.561279,,,,,,
1484030207.686368,-0.831929,0.918320,0.198508,-0.001505,-0.000783,-0.001559,-0.448829,-0.794583,-0.408889,0.002571,0.005154,0.002105,-19.906357,24.868164,44.262573,,,,,,
1484030207.706357,-0.831952,0.918306,0.198490,-0.002571,-0.000792,-0.001562,-0.448846,-0.794574,-0.408887,0.001154,0.004489,0.004499,-19.904251,25.243835,44.710693,,,,,,
1484030207.726376,-0.831997,0.918327,0.198493,-0.002571,-0.000792,-0.001562,-0.448853,-0.794587,-0.408856,0.002350,0.004273,0.004071,-19.755463,25.018372,44.562073,,,,,,
1484030207.746365,-0.831981,0.918352,0.198436,-0.002578,0.000269,-0.001576,-0.448831,-0.794602,-0.408849,0.002802,0.004807,0.004766,-19.755463,25.018372,44.562073,,,,,,
1484030207.766354,-0.831982,0.918323,0.198404,-0.002570,-0.000792,-0.001562,-0.448849,-0.794584,-0.408864,0.002224,0.004286,0.002965,-20.204361,25.244019,44.485291,,,,,,
1484030207.786374,-0.832086,0.918326,0.198448,-0.000432,-0.001836,-0.000475,-0.448889,-0.794587,-0.408816,0.000296,0.005326,0.002505,-20.204636,25.169312,44.710632,,,,,,
1484030207.806363,-0.832090,0.918333,0.198413,-0.003639,-0.000803,-0.000498,-0.448887,-0.794591,-0.408811,0.002064,0.003438,0.003873,-20.054642,25.169067,44.710876,,,,,,
1484030207.826382,-0.832051,0.918376,0.198348,-0.002585,0.001331,-0.001590,-0.448846,-0.794617,-0.408805,0.003259,0.003342,0.004081,-19.754364,25.243347,44.485962,,,,,,
1484030207.846371,-0.832031,0.918357,0.198317,-0.001551,0.002303,-0.000524,-0.448849,-0.794605,-0.408824,0.000714,0.002872,0.003902,-19.754364,25.243347,44.485962,,,,,,
1484030207.866391,-0.831998,0.918364,0.198292,-0.001547,0.002304,-0.001591,-0.448831,-0.794609,-0.408835,0.002725,0.004754,0.002707,-20.130112,25.093872,44.486145,,,,,,
1484030207.886380,-0.831973,0.918390,0.198261,-0.002602,0.000170,-0.000499,-0.448806,-0.794625,-0.408833,0.002426,0.003091,0.002796,-19.529785,25.167847,44.411682,,,,,,
1484030207.906400,-0.831955,0.918365,0.198203,-0.001516,-0.001942,-0.001535,-0.448813,-0.794610,-0.408854,0.001487,0.005288,0.002787,-20.054291,25.243958,44.635437,,,,,,
1484030207.926389,-0.831856,0.918336,0.198117,-0.003662,0.000163,-0.002635,-0.448790,-0.794592,-0.408914,0.002837,0.003424,0.000970,-20.129639,25.169189,44.710754,,,,,,
1484030207.946408,-0.831930,0.918334,0.198132,-0.002593,-0.000891,-0.000485,-0.448821,-0.794591,-0.408882,0.002013,0.003530,0.004814,-20.129639,25.169189,44.710754,,,,,,
1484030207.966397,-0.831905,0.918288,0.198067,-0.001531,0.000181,-0.001563,-0.448838,-0.794563,-0.408918,0.002091,0.006081,0.003400,-20.205490,25.018982,44.486389,,,,,,
1484030207.986417,-0.831927,0.918295,0.198045,-0.002596,-0.000892,0.000582,-0.448843,-0.794568,-0.408904,0.001760,0.003781,0.003631,-19.979172,25.244202,44.860596,,,,,,
1484030208.006406,-0.832021,0.918268,0.198065,-0.003677,-0.000990,-0.000476,-0.448897,-0.794551,-0.408876,0.001830,0.004375,0.004091,-20.204178,25.244568,44.860291,,,,,,
1484030208.026425,-0.832031,0.918236,0.198039,-0.001551,0.000090,-0.000484,-0.448920,-0.794532,-0.408889,0.000708,0.004340,0.003295,-20.206055,24.869568,44.862122,,,,,,
1484030208.046414,-0.831955,0.918205,0.197953,-0.002615,0.000082,-0.001554,-0.448907,-0.794513,-0.408940,0.002878,0.004764,0.001545,-20.206055,24.869568,44.862122,,,,,,
1484030208.066434,-0.832019,0.918212,0.197989,-0.001553,0.001154,-0.002631,-0.448929,-0.794517,-0.408907,0.001084,0.005638,0.002962,-19.530334,25.018372,44.787415,,,,,,
1484030208.086423,-0.831899,0.918182,0.197869,-0.002622,0.001143,-0.001568,-0.448898,-0.794499,-0.408977,0.003997,0.006291,0.002163,-19.604630,25.168396,44.711548,,,,,,
,,,,,,,,,,,,,,,,33.759122,-118.389368,314.066345,0.000000,225.351562,1484030208.004411
1484030208.106442,-0.831849,0.918204,0.197804,-0.001543,-0.000971,-0.000470,-0.448865,-0.794512,-0.408988,0.004559,0.005526,0.003837,-20.355179,25.093933,44.335754,,,,,,
1484030208.126431,-0.831866,0.918197,0.197773,-0.002607,-0.000980,-0.001540,-0.448876,-0.794508,-0.408984,0.001549,0.003523,0.002551,-19.680191,25.092957,44.336792,,,,,,
1484030208.146451,-0.831958,0.918165,0.197804,-0.000469,-0.002024,-0.000453,-0.448932,-0.794488,-0.408960,0.001117,0.003946,0.003778,-19.680191,25.092957,44.336792,,,,,,
1484030208.166440,-0.832036,0.918123,0.197812,-0.002626,-0.001064,0.000607,-0.448988,-0.794463,-0.408947,0.000029,0.006362,0.005108,-19.904251,25.243835,44.710693,,,,,,
1484030208.186459,-0.831975,0.918126,0.197731,-0.002628,0.000000,-0.001541,-0.448962,-0.794465,-0.408973,0.001086,0.004334,0.003226,-19.605377,25.018372,44.712280,,,,,,
1484030208.206448,-0.832092,0.918157,0.197798,-0.001564,0.000008,-0.000471,-0.448991,-0.794484,-0.408903,0.001710,0.005070,0.005751,-19.829788,25.168274,44.411194,,,,,,
1484030208.226468,-0.832151,0.918202,0.197828,-0.001560,0.000009,-0.001538,-0.448989,-0.794511,-0.408853,0.002456,0.003938,0.005395,-20.128677,25.319763,45.084961,,,,,,
1484030208.246457,-0.832076,0.918209,0.197745,-0.002627,-0.000000,-0.001541,-0.448954,-0.794515,-0.408883,0.002238,0.005285,0.000955,-20.128677,25.319763,45.084961,,,,,,
1484030208.266476,-0.832049,0.918162,0.197702,-0.002622,-0.001063,-0.000460,-0.448971,-0.794487,-0.408920,0.002178,0.003792,0.002044,-20.203308,25.394836,45.084473,,,,,,
1484030208.286465,-0.832027,0.918158,0.197655,-0.001552,-0.001052,-0.001524,-0.448964,-0.794484,-0.408932,0.002828,0.003301,0.003583,-20.128830,25.319336,44.784973,,,,,,
1484030208.306485,-0.832060,0.918182,0.197630,-0.001552,-0.001052,-0.001524,-0.448963,-0.794499,-0.408905,0.001500,0.003209,0.001449,-19.980148,25.093506,44.411377,,,,,,
1484030208.326474,-0.832047,0.918161,0.197563,-0.001557,-0.002189,-0.000429,-0.448970,-0.794486,-0.408922,0.002117,0.005226,0.003496,-20.354996,25.094482,44.710754,,,,,,
1484030208.346494,-0.832093,0.918149,0.197558,-0.002628,-0.001136,-0.001513,-0.448996,-0.794479,-0.408908,0.000479,0.005188,0.003375,-20.354996,25.094482,44.710754,,,,,,
1484030208.366483,-0.832080,0.918134,0.197511,-0.002639,-0.000075,-0.000460,-0.449000,-0.794470,-0.408921,0.002848,0.005010,0.002580,-20.430832,24.944397,44.561462,,,,,,
1484030208.386502,-0.832079,0.918127,0.197499,-0.001580,0.000995,-0.000471,-0.449004,-0.794466,-0.408926,0.003600,0.006288,0.003668,-19.831207,24.868469,44.562744,,,,,,
1484030208.406491,-0.832071,0.918109,0.197482,-0.001580,0.000995,-0.000471,-0.449011,-0.794455,-0.408939,0.002081,0.004980,0.002582,-20.130341,25.019287,44.786499,,,,,,
1484030208.426511,-0.832075,0.918133,0.197485,-0.001572,-0.000066,-0.000457,-0.448999,-0.794469,-0.408924,0.000802,0.004979,0.003483,-19.979782,25.168518,44.410950,,,,,,
1484030208.446500,-0.832030,0.918153,0.197427,-0.001561,-0.001127,-0.001510,-0.448969,-0.794481,-0.408934,0.002909,0.003374,0.002715,-19.979782,25.168518,44.410950,,,,,,
1484030208.466519,-0.832047,0.918112,0.197406,-0.002627,-0.001136,-0.001512,-0.448999,-0.794456,-0.408948,0.002451,0.006309,0.003324,-20.355530,25.019043,44.411133,,,,,,
1484030208.486508,-0.831951,0.918085,0.197263,-0.001559,-0.002256,-0.001481,-0.448976,-0.794440,-0.409005,0.002275,0.005057,0.001764,-19.754364,25.243347,44.485962,,,,,,
1484030208.506521,-0.831993,0.918098,0.197245,-0.001559,-0.002256,-0.001481,-0.448985,-0.794448,-0.408980,0.001750,0.004058,0.004240,-19.981567,24.793701,44.562866,,,,,,
1484030208.526510,-0.832030,0.918064,0.197225,-0.003703,-0.001214,-0.000434,-0.449021,-0.794427,-0.408981,0.002762,0.003045,0.003281,-20.205856,24.944031,44.486755,,,,,,
1484030208.546529,-0.832073,0.918087,0.197229,-0.001566,-0.001194,-0.001495,-0.449025,-0.794441,-0.408950,0.002354,0.003792,0.004683,-20.205856,24.944031,44.486755,,,,,,
1484030208.566518,-0.832037,0.918056,0.197169,-0.001574,-0.000133,-0.001509,-0.449028,-0.794422,-0.408983,0.001336,0.005344,0.003969,-20.205002,25.094299,44.710999,,,,,,
1484030208.586538,-0.832053,0.918128,0.197162,0.000560,-0.000114,-0.001503,-0.448993,-0.794466,-0.408937,0.003375,0.005327,0.003831,-20.355377,25.019470,44.711121,,,,,,
1484030208.606527,-0.832071,0.918076,0.197149,-0.001577,-0.000134,-0.000442,-0.449030,-0.794435,-0.408956,0.001078,0.004869,0.002508,-19.904205,25.243958,44.785706,,,,,,
1484030208.626545,-0.831996,0.918063,0.197061,-0.001574,-0.000133,-0.001509,-0.449007,-0.794427,-0.408997,0.002352,0.004800,0.001160,-20.279922,25.094604,44.860901,,,,,,
1484030208.646534,-0.831962,0.918077,0.196983,-0.003702,-0.001274,-0.001485,-0.448985,-0.794435,-0.409005,0.002711,0.004518,0.003564,-20.279922,25.094604,44.860901,,,,,,
1484030208.666554,-0.831936,0.918065,0.196917,-0.003709,-0.000213,-0.001500,-0.448982,-0.794428,-0.409023,0.003242,0.003855,0.003475,-19.905701,24.943970,44.787231,,,,,,
1484030208.686543,-0.831969,0.918089,0.196904,-0.002645,-0.000204,-0.000430,-0.448981,-0.794442,-0.408995,0.001761,0.003411,0.002806,-20.207886,24.568542,44.188660,,,,,,
1484030208.706563,-0.832046,0.918072,0.196925,-0.002637,-0.001266,-0.000416,-0.449023,-0.794432,-0.408970,0.001528,0.004607,0.004337,-19.980331,25.019043,44.786743,,,,,,
1484030208.726552,-0.832042,0.918031,0.196893,-0.002653,0.000857,-0.000444,-0.449045,-0.794407,-0.408994,0.002908,0.005299,0.003369,-19.681656,24.793091,44.413330,,,,,,
1484030208.746572,-0.832104,0.918024,0.196885,-0.003708,-0.000213,-0.001499,-0.449074,-0.794403,-0.408970,0.002251,0.004990,0.003742,-19.681656,24.793091,44.413330,,,,,,
1484030208.766561,-0.832132,0.918044,0.196878,-0.001578,-0.000195,-0.000427,-0.449074,-0.794415,-0.408946,0.002190,0.005246,0.003124,-20.206131,24.869324,44.712097,,,,,,
1484030208.786581,-0.832149,0.918050,0.196867,-0.003715,0.000848,-0.001513,-0.449078,-0.794419,-0.408936,0.001614,0.003037,0.005463,-19.905258,25.019165,44.936890,,,,,,
1484030208.806570,-0.832131,0.918062,0.196812,-0.002643,-0.000261,-0.000414,-0.449063,-0.794426,-0.408937,0.003857,0.005516,0.003023,-19.530533,25.017822,44.412415,,,,,,
1484030208.826589,-0.832185,0.918046,0.196812,-0.001573,-0.000250,-0.001478,-0.449095,-0.794416,-0.408921,0.001875,0.004362,0.002809,-19.904633,25.168823,44.711060,,,,,,
1484030208.846578,-0.832208,0.918064,0.196790,-0.001566,-0.001312,-0.001463,-0.449093,-0.794428,-0.408901,0.001904,0.004022,0.002682,-19.904633,25.168823,44.711060,,,,,,
1484030208.866598,-0.832259,0.918069,0.196812,-0.001584,0.000810,-0.000425,-0.449112,-0.794430,-0.408876,0.002899,0.004757,0.004106,-19.831161,24.868591,44.637695,,,,,,
1484030208.886586,-0.832209,0.918028,0.196748,-0.002635,-0.001322,-0.000400,-0.449115,-0.794405,-0.408921,0.002796,0.007052,0.003159,-20.129211,25.244324,44.785400,,,,,,
1484030208.906605,-0.832252,0.918027,0.196735,-0.001557,-0.002373,-0.001449,-0.449133,-0.794405,-0.408901,0.002874,0.003511,0.003323,-19.678436,25.393738,44.860291,,,,,,
1484030208.926594,-0.832132,0.918024,0.196606,-0.000509,-0.000242,-0.000408,-0.449086,-0.794403,-0.408957,0.003453,0.004516,0.001898,-19.904922,25.094055,44.861450,,,,,,
1484030208.946584,-0.832119,0.918025,0.196553,-0.002632,-0.001321,-0.001466,-0.449080,-0.794403,-0.408963,0.003813,0.004868,0.002835,-19.904922,25.094055,44.861450,,,,,,
1484030208.966604,-0.832146,0.917991,0.196535,-0.002633,-0.000310,-0.002530,-0.449111,-0.794383,-0.408968,0.002150,0.005076,0.004534,-20.504776,25.095398,45.160583,,,,,,
1484030208.986593,-0.832165,0.917979,0.196510,-0.002643,0.000750,-0.001478,-0.449126,-0.794376,-0.408966,0.000853,0.004382,0.002319,-20.055420,25.018921,44.636597,,,,,,
1484030209.006612,-0.832108,0.917978,0.196420,-0.000498,-0.001355,-0.000377,-0.449103,-0.794375,-0.408992,0.004111,0.005145,0.003337,-19.828430,25.393921,44.860107,,,,,,
1484030209.026601,-0.832092,0.917976,0.196399,-0.000518,0.001831,-0.001486,-0.449097,-0.794374,-0.409000,0.002213,0.005174,0.003788,-19.904922,25.094055,44.861450,,,,,,
1484030209.046621,-0.832078,0.918006,0.196349,-0.001556,-0.002426,-0.000366,-0.449075,-0.794392,-0.408991,0.003289,0.003025,0.002756,-19.904922,25.094055,44.861450,,,,,,
1484030209.066610,-0.832113,0.917966,0.196342,-0.002638,-0.000312,-0.000397,-0.449112,-0.794368,-0.408996,0.000153,0.005366,0.002105,-20.206238,24.869019,44.487122,,,,,,
,,,,,,,,,,,,,,,,33.759122,-118.389368,314.057373,0.000000,225.351562,1484030209.004411
1484030209.086628,-0.832115,0.917986,0.196302,-0.003697,-0.001383,-0.000386,-0.449101,-0.794380,-0.408985,0.002950,0.004875,0.004566,-19.829178,25.317810,44.110474,,,,,,
1484030209.106617,-0.832149,0.918003,0.196287,-0.002634,-0.000311,-0.001464,-0.449105,-0.794390,-0.408961,0.001519,0.004809,0.003504,-19.905411,25.018677,44.636841,,,,,,
1484030209.126637,-0.832154,0.918005,0.196251,-0.003698,-0.000365,-0.000384,-0.449106,-0.794392,-0.408957,0.001840,0.005085,0.003562,-20.279922,25.094604,44.860901,,,,,,
1484030209.146626,-0.832145,0.917998,0.196196,-0.003690,-0.001427,-0.000370,-0.449107,-0.794387,-0.408965,0.003031,0.003829,0.004042,-20.279922,25.094604,44.860901,,,,,,
1484030209.166646,-0.832117,0.918007,0.196140,-0.002631,-0.000356,-0.000381,-0.449089,-0.794393,-0.408973,0.002312,0.004537,0.002204,-20.131210,24.868958,44.562256,,,,,,
1484030209.186635,-0.832066,0.918031,0.196059,-0.003690,-0.001426,-0.000370,-0.449055,-0.794407,-0.408983,0.002537,0.003437,0.003801,-19.903900,25.318726,44.635315,,,,,,
1484030209.206655,-0.832060,0.918035,0.196019,-0.001561,-0.000345,-0.001445,-0.449050,-0.794409,-0.408983,0.002502,0.004508,0.004091,-20.129105,25.244629,45.010376,,,,,,
1484030209.226644,-0.832089,0.918012,0.196001,-0.002626,-0.001418,0.000699,-0.449075,-0.794396,-0.408983,0.001642,0.004860,0.004808,-20.204590,25.169434,44.785645,,,,,,
1484030209.246664,-0.832079,0.917996,0.195957,-0.002627,-0.000355,-0.001448,-0.449081,-0.794386,-0.408995,0.001968,0.004576,0.002471,-20.204590,25.169434,44.785645,,,,,,
1484030209.266653,-0.832105,0.918001,0.195935,-0.001556,-0.001408,-0.000364,-0.449088,-0.794389,-0.408981,0.002082,0.003968,0.003570,-20.354507,25.169861,44.935425,,,,,,
1484030209.286672,-0.832166,0.917973,0.195954,-0.001562,0.000674,-0.000375,-0.449130,-0.794372,-0.408969,0.001605,0.004150,0.003787,-20.204926,25.094543,44.861023,,,,,,
1484030209.306661,-0.832186,0.918017,0.195949,-0.000488,-0.000378,-0.000358,-0.449112,-0.794399,-0.408936,0.003174,0.004436,0.003816,-20.279846,25.094788,45.010864,,,,,,
1484030209.326681,-0.832220,0.917992,0.195938,-0.001546,-0.001449,-0.000347,-0.449141,-0.794383,-0.408935,0.001036,0.006557,0.003127,-19.605743,24.943420,44.712646,,,,,,
1484030209.346669,-0.832185,0.917990,0.195889,-0.001563,0.001738,-0.002523,-0.449127,-0.794382,-0.408951,0.002274,0.005305,0.001465,-19.605743,24.943420,44.712646,,,,,,
1484030209.366688,-0.832131,0.917955,0.195817,-0.002625,0.000666,-0.001445,-0.449126,-0.794361,-0.408994,0.002944,0.004658,0.004240,-19.903351,25.394226,45.009949,,,,,,
1484030209.386678,-0.832167,0.917968,0.195807,-0.002628,0.000664,-0.000378,-0.449133,-0.794369,-0.408971,0.003424,0.005215,0.003713,-20.204926,25.094543,44.861023,,,,,,
1484030209.406698,-0.832182,0.917995,0.195771,-0.003680,-0.000404,-0.002500,-0.449124,-0.794385,-0.408950,0.002636,0.005796,0.004531,-19.680313,25.018738,44.862183,,,,,,
1484030209.426687,-0.832199,0.917981,0.195744,-0.001542,-0.001448,-0.001413,-0.449138,-0.794377,-0.408950,0.001705,0.005467,0.003570,-19.979874,25.094299,44.936401,,,,,,
1484030209.446706,-0.832281,0.917981,0.195740,-0.001528,-0.001483,-0.002463,-0.449172,-0.794377,-0.408913,0.000808,0.004399,0.004510,-19.979874,25.094299,44.936401,,,,,,
1484030209.466695,-0.832268,0.917989,0.195672,-0.002590,-0.002555,-0.001386,-0.449162,-0.794382,-0.408915,0.003254,0.003000,0.002665,-20.055161,25.093628,44.411255,,,,,,
1484030209.486715,-0.832221,0.918001,0.195596,-0.002597,-0.001493,-0.001400,-0.449136,-0.794389,-0.408929,0.002298,0.004106,0.003046,-20.129333,25.243958,44.560425,,,,,,
1484030209.506677,-0.832191,0.917995,0.195545,-0.002616,0.000629,-0.000361,-0.449127,-0.794386,-0.408946,0.003997,0.005232,0.003398,-19.904999,25.093811,44.711426,,,,,,
1484030209.526696,-0.832235,0.917995,0.195552,-0.002597,-0.001493,-0.001400,-0.449145,-0.794385,-0.408926,0.001483,0.005216,0.002661,-20.354050,25.245056,45.085022,,,,,,
1484030209.546685,-0.832152,0.918007,0.195440,-0.003674,-0.000442,-0.000350,-0.449104,-0.794393,-0.408957,0.004295,0.004613,0.002997,-20.354050,25.245056,45.085022,,,,,,
1484030209.566705,-0.832092,0.918025,0.195358,-0.001538,-0.000422,-0.001411,-0.449069,-0.794404,-0.408974,0.003817,0.003739,0.001946,-19.753510,25.393616,44.710205,,,,,,
1484030209.586694,-0.832042,0.918026,0.195271,-0.002593,-0.001492,-0.002467,-0.449048,-0.794404,-0.408997,0.001813,0.005189,0.001709,-20.130386,25.019165,44.711487,,,,,,
1484030209.606713,-0.832044,0.917978,0.195240,-0.002602,0.000598,-0.000344,-0.449077,-0.794375,-0.409021,0.001292,0.004870,0.002954,-20.205978,24.869751,45.012085,,,,,,
1484030209.626702,-0.832081,0.918003,0.195238,-0.001520,-0.001516,-0.000313,-0.449078,-0.794390,-0.408991,0.001873,0.002398,0.005351,-19.831650,24.793274,44.413086,,,,,,
1484030209.646722,-0.832073,0.917980,0.195187,-0.003657,-0.000472,-0.001400,-0.449088,-0.794376,-0.409007,0.002371,0.004444,0.003276,-19.831650,24.793274,44.413086,,,,,,
1484030209.666711,-0.832104,0.917956,0.195165,-0.003663,-0.000474,0.000733,-0.449115,-0.794361,-0.409006,0.001941,0.004353,0.002832,-19.979202,25.244080,44.785583,,,,,,
1484030209.686731,-0.832079,0.917978,0.195105,-0.001527,-0.000455,-0.000327,-0.449091,-0.794375,-0.409005,0.001581,0.003421,0.004327,-20.354507,25.169861,44.935425,,,,,,
1484030209.706720,-0.832042,0.917908,0.195041,-0.001524,-0.000454,-0.001394,-0.449117,-0.794332,-0.409059,0.002172,0.007376,0.003206,-20.057419,24.643616,44.413513,,,,,,
1484030209.726739,-0.831959,0.917965,0.194936,-0.002587,-0.000462,-0.002464,-0.449050,-0.794367,-0.409066,0.004485,0.003992,0.001519,-19.978745,25.319336,44.935242,,,,,,
1484030209.746728,-0.831920,0.917963,0.194873,-0.000457,-0.000444,-0.001391,-0.449035,-0.794366,-0.409085,0.002975,0.004205,0.003750,-19.978745,25.319336,44.935242,,,,,,
1484030209.766748,-0.831935,0.917987,0.194846,-0.001497,-0.001542,-0.002430,-0.449027,-0.794380,-0.409065,0.002097,0.004448,0.004067,-20.354630,25.169495,44.710388,,,,,,
1484030209.786737,-0.831946,0.918010,0.194814,-0.001511,-0.000482,-0.000311,-0.449018,-0.794395,-0.409048,0.001706,0.004890,0.004156,-20.205627,24.944702,44.936768,,,,,,
1484030209.806756,-0.831909,0.917957,0.194736,-0.002581,-0.000492,0.000753,-0.449034,-0.794362,-0.409093,0.001967,0.005406,0.001165,-20.279053,25.244934,45.085144,,,,,,
1484030209.826745,-0.832000,0.917991,0.194771,-0.003629,-0.002624,-0.000288,-0.449051,-0.794383,-0.409034,0.004075,0.003047,0.005088,-20.279999,25.094360,44.710876,,,,,,
1484030209.846765,-0.831988,0.917981,0.194710,-0.001511,-0.000482,-0.000310,-0.449053,-0.794377,-0.409045,0.003114,0.004597,0.001711,-20.279999,25.094360,44.710876,,,,,,
1484030209.866754,-0.832005,0.918005,0.194688,-0.002585,0.000570,-0.000328,-0.449045,-0.794392,-0.409024,0.002542,0.004368,0.004224,-20.054886,25.094421,44.936279,,,,,,
1484030209.886773,-0.832081,0.918031,0.194708,-0.002569,-0.001553,-0.000299,-0.449061,-0.794407,-0.408976,0.001841,0.002857,0.003840,-19.981491,24.793945,44.712830,,,,,,
1484030209.906762,-0.832124,0.918035,0.194713,-0.001507,-0.000481,-0.001377,-0.449076,-0.794410,-0.408955,0.001826,0.004645,0.004689,-19.680908,24.943115,44.412537,,,,,,
1484030209.926782,-0.832149,0.918058,0.194701,-0.001488,-0.000506,-0.001360,-0.449073,-0.794424,-0.408931,0.002509,0.003698,0.002178,-20.356232,24.869202,44.486938,,,,,,
1484030209.946771,-0.832139,0.918029,0.194665,-0.001499,0.000554,-0.000307,-0.449085,-0.794406,-0.408951,0.003437,0.005328,0.002457,-20.356232,24.869202,44.486938,,,,,,
1484030209.966790,-0.832138,0.918045,0.194627,-0.001485,-0.000505,-0.002426,-0.449076,-0.794416,-0.408943,0.002848,0.004315,0.002312,-20.431580,24.794373,44.562195,,,,,,
1484030209.986779,-0.832145,0.918036,0.194600,-0.000414,-0.001558,-0.001343,-0.449084,-0.794410,-0.408945,0.002185,0.004921,0.003427,-19.906235,24.868530,44.487610,,,,,,
1484030210.006799,-0.832170,0.918050,0.194590,-0.001492,0.000556,-0.002440,-0.449086,-0.794419,-0.408926,0.002339,0.004746,0.003408,-19.907257,24.643799,44.713684,,,,,,
1484030210.026788,-0.832171,0.918088,0.194543,-0.001472,-0.002629,-0.001331,-0.449065,-0.794442,-0.408905,0.003218,0.004631,0.003021,-19.754593,25.168762,44.786316,,,,,,
1484030210.046807,-0.832147,0.918052,0.194473,-0.002554,-0.000515,-0.001363,-0.449075,-0.794420,-0.408935,0.003244,0.004656,0.001861,-19.754593,25.168762,44.786316,,,,,,
1484030210.066796,-0.832132,0.918014,0.194430,-0.002554,-0.000515,-0.001362,-0.449091,-0.794397,-0.408962,0.001643,0.005426,0.002712,-20.055389,25.019043,44.711609,,,,,,
,,,,,,,,,,,,,,,,33.759122,-118.389368,314.031311,0.000000,225.351562,1484030210.004411
1484030210.086816,-0.832079,0.917988,0.194357,-0.002538,-0.000537,-0.000279,-0.449086,-0.794381,-0.409000,0.001957,0.003869,0.002079,-19.830307,25.018921,44.861938,,,,,,
1484030210.106805,-0.832082,0.917986,0.194329,-0.001476,0.000535,-0.001357,-0.449088,-0.794380,-0.409000,0.002067,0.004295,0.000949,-19.977753,25.543945,44.709106,,,,,,
1484030210.126825,-0.832019,0.918003,0.194240,-0.002538,-0.000537,-0.000279,-0.449052,-0.794390,-0.409019,0.003709,0.003695,0.003364,-20.130005,25.094177,44.711121,,,,,,
1484030210.146814,-0.832004,0.917961,0.194186,-0.001460,-0.001588,-0.001328,-0.449071,-0.794364,-0.409048,0.001790,0.004509,0.001333,-20.130005,25.094177,44.711121,,,,,,
1484030210.166803,-0.832076,0.917998,0.194213,-0.001471,-0.000528,-0.000276,-0.449078,-0.794387,-0.408996,0.004254,0.004165,0.004516,-20.130310,25.019409,44.861511,,,,,,
1484030210.186822,-0.832101,0.918047,0.194194,-0.001460,-0.001588,-0.001329,-0.449060,-0.794417,-0.408959,0.003869,0.004957,0.003914,-20.204254,25.244324,44.710266,,,,,,
1484030210.206811,-0.832107,0.918012,0.194163,-0.002534,-0.000536,-0.001346,-0.449083,-0.794396,-0.408975,0.003358,0.004463,0.005822,-20.128830,25.319336,44.784973,,,,,,
1484030210.226831,-0.832065,0.918062,0.194087,-0.002532,-0.001600,0.000801,-0.449036,-0.794426,-0.408967,0.003800,0.002831,0.001954,-19.529785,25.167847,44.411682,,,,,,
1484030210.246820,-0.832061,0.918057,0.194054,-0.001458,0.000517,-0.000275,-0.449038,-0.794423,-0.408971,0.002718,0.004231,0.002492,-19.529785,25.167847,44.411682,,,,,,
1484030210.266839,-0.832004,0.918048,0.193961,-0.001454,-0.000546,0.000806,-0.449020,-0.794417,-0.409002,0.003082,0.002852,0.001729,-19.904175,25.244080,44.860718,,,,,,
1484030210.286828,-0.832038,0.918049,0.193952,-0.000384,-0.000535,-0.000258,-0.449033,-0.794418,-0.408986,0.002515,0.004333,0.003483,-20.280746,24.944397,44.711609,,,,,,
1484030210.306848,-0.832109,0.918023,0.193961,-0.001439,-0.001605,-0.001313,-0.449077,-0.794402,-0.408968,0.001491,0.005111,0.003878,-19.905258,25.019165,44.936890,,,,,,
1484030210.326837,-0.832069,0.918002,0.193901,-0.001447,-0.000544,-0.001327,-0.449073,-0.794390,-0.408997,0.001975,0.004488,0.002503,-20.205627,24.944702,44.936768,,,,,,
1484030210.346856,-0.832097,0.917985,0.193868,-0.000365,-0.002657,-0.001296,-0.449094,-0.794380,-0.408993,0.001798,0.006034,0.001873,-20.205627,24.944702,44.936768,,,,,,
1484030210.366845,-0.832139,0.917985,0.193874,-0.001447,-0.000544,-0.001327,-0.449112,-0.794379,-0.408975,0.002487,0.004493,0.002832,-20.130005,25.094177,44.711121,,,,,,
1484030210.386865,-0.832193,0.917951,0.193894,-0.002517,-0.000554,-0.000263,-0.449154,-0.794358,-0.408969,0.001858,0.004869,0.002521,-20.129333,25.243958,44.560425,,,,,,
1484030210.406854,-0.832202,0.917913,0.193859,-0.001427,-0.000560,-0.000243,-0.449180,-0.794336,-0.408985,0.001517,0.004190,0.002536,-20.204437,25.243774,44.335266,,,,,,
1484030210.426873,-0.832142,0.917925,0.193779,-0.002494,-0.000570,-0.000246,-0.449148,-0.794343,-0.409005,0.003027,0.004044,0.002115,-20.581497,24.794861,44.711914,,,,,,
1484030210.446862,-0.832122,0.917905,0.193730,-0.001424,-0.000559,-0.001310,-0.449151,-0.794331,-0.409025,0.003473,0.006535,0.000715,-20.581497,24.794861,44.711914,,,,,,
1484030210.466882,-0.832145,0.917943,0.193712,-0.001424,-0.000559,-0.001310,-0.449139,-0.794354,-0.408995,0.002804,0.004559,0.003355,-20.130829,24.943970,44.561890,,,,,,
1484030210.486871,-0.832159,0.917975,0.193689,-0.001408,-0.002682,-0.001282,-0.449125,-0.794373,-0.408971,0.002943,0.005143,0.003927,-20.129364,25.243896,44.485413,,,,,,
1484030210.506868,-0.832231,0.917978,0.193715,-0.001431,0.000502,-0.001324,-0.449153,-0.794375,-0.408937,0.001781,0.005389,0.004076,-20.205902,24.943909,44.411743,,,,,,
1484030210.526857,-0.832203,0.917977,0.193677,-0.001423,-0.000559,-0.001310,-0.449142,-0.794375,-0.408950,0.001999,0.004229,0.001510,-20.206528,24.794189,44.637512,,,,,,
1484030210.546877,-0.832146,0.917980,0.193580,-0.000346,-0.001610,-0.002359,-0.449118,-0.794376,-0.408974,0.004873,0.005253,0.003884,-20.206528,24.794189,44.637512,,,,,,
1484030210.566866,-0.832070,0.918000,0.193465,-0.002455,-0.001642,-0.002348,-0.449075,-0.794388,-0.408998,0.004250,0.004410,0.002259,-20.131210,24.868958,44.562256,,,,,,
1484030210.586886,-0.832096,0.917943,0.193440,-0.002461,-0.001644,-0.000215,-0.449119,-0.794353,-0.409017,0.001716,0.005779,0.001134,-20.505005,25.094727,44.710571,,,,,,
1484030210.606875,-0.832080,0.917974,0.193397,-0.002469,-0.000582,-0.000229,-0.449094,-0.794373,-0.409007,0.003705,0.003235,0.003383,-20.279587,25.169495,44.785522,,,,,,
1484030210.626894,-0.832067,0.917984,0.193340,-0.001384,-0.002695,-0.001265,-0.449083,-0.794379,-0.409008,0.003953,0.003668,0.001979,-20.130157,25.093750,44.411133,,,,,,
1484030210.646883,-0.832000,0.918041,0.193259,-0.000335,-0.000564,-0.000224,-0.449022,-0.794413,-0.409007,0.004030,0.002360,0.002315,-20.130157,25.093750,44.411133,,,,,,
1484030210.666903,-0.832033,0.918079,0.193252,-0.001399,-0.000572,-0.001293,-0.449013,-0.794437,-0.408972,0.002663,0.004657,0.002737,-19.981049,24.943054,44.112122,,,,,,
1484030210.686892,-0.831988,0.918108,0.193184,-0.001391,-0.001633,-0.001279,-0.448978,-0.794454,-0.408977,0.003955,0.004445,0.003566,-19.906006,24.943054,44.187256,,,,,,
1484030210.706911,-0.832007,0.918121,0.193172,-0.000327,-0.001625,-0.000210,-0.448978,-0.794462,-0.408961,0.001865,0.004438,0.001841,-20.505264,25.020081,44.935974,,,,,,
1484030210.726900,-0.832130,0.918137,0.193245,-0.001375,-0.000585,-0.000209,-0.449019,-0.794472,-0.408898,0.001799,0.004249,0.004845,-20.131500,24.794189,44.712585,,,,,,
1484030210.746920,-0.832167,0.918155,0.193240,-0.001375,-0.000585,-0.000209,-0.449023,-0.794482,-0.408872,0.001925,0.003741,0.003613,-20.131500,24.794189,44.712585,,,,,,
1484030210.766909,-0.832187,0.918134,0.193217,-0.002426,-0.002717,-0.000183,-0.449043,-0.794470,-0.408873,0.002403,0.006140,0.004164,-20.055496,25.018738,44.486633,,,,,,
1484030210.786928,-0.832160,0.918126,0.193151,-0.001368,-0.000582,-0.002342,-0.449037,-0.794465,-0.408890,0.002428,0.004197,0.002732,-20.431534,24.794495,44.637146,,,,,,
1484030210.806917,-0.832115,0.918126,0.193079,-0.002438,-0.000593,-0.001278,-0.449019,-0.794465,-0.408910,0.003859,0.005723,0.002981,-20.579208,25.244995,44.784668,,,,,,
1484030210.826937,-0.832082,0.918117,0.193034,-0.002441,-0.000594,-0.000212,-0.449011,-0.794460,-0.408929,0.000433,0.004909,0.001932,-20.427933,25.470154,45.083801,,,,,,
1484030210.846926,-0.832149,0.918124,0.193040,-0.000297,-0.001636,-0.001258,-0.449034,-0.794464,-0.408896,0.002547,0.003891,0.004752,-20.427933,25.470154,45.083801,,,,,,
1484030210.866945,-0.832162,0.918109,0.193010,-0.001371,-0.000583,-0.001275,-0.449048,-0.794455,-0.408898,0.001370,0.004690,-0.000068,-20.651779,25.695679,45.157349,,,,,,
1484030210.886934,-0.832191,0.918092,0.192994,-0.002409,-0.001664,-0.000181,-0.449070,-0.794444,-0.408894,0.001514,0.004634,0.001683,-19.826782,25.694397,45.158569,,,,,,
1484030210.906954,-0.832242,0.918038,0.192987,-0.003473,-0.001672,-0.001251,-0.449122,-0.794412,-0.408900,0.001063,0.004266,0.001216,-20.874161,26.146912,45.829712,,,,,,
1484030210.926943,-0.832263,0.918069,0.192968,-0.000288,0.000479,-0.001270,-0.449113,-0.794430,-0.408874,0.002305,0.004620,0.003524,-20.201324,25.770142,45.307678,,,,,,
1484030210.946962,-0.832211,0.918048,0.192875,-0.001344,-0.000591,-0.002326,-0.449104,-0.794418,-0.408909,0.002769,0.006606,0.001850,-20.201324,25.770142,45.307678,,,,,,
1484030210.966951,-0.832048,0.918048,0.192715,-0.001342,-0.001654,-0.000179,-0.449037,-0.794418,-0.408982,0.003572,0.002883,-0.000106,-21.100098,25.996765,45.455139,,,,,,
1484030210.986971,-0.832091,0.918055,0.192692,-0.003480,-0.000610,-0.001265,-0.449051,-0.794422,-0.408959,0.002884,0.004200,0.003899,-20.876724,25.696106,45.231995,,,,,,
1484030211.006960,-0.832109,0.918058,0.192663,-0.002413,-0.000601,-0.001262,-0.449056,-0.794424,-0.408949,0.003713,0.005575,0.003721,-20.574402,26.145813,45.380188,,,,,,
1484030211.026980,-0.832048,0.918052,0.192580,-0.003475,-0.001673,-0.000185,-0.449035,-0.794420,-0.408979,0.003860,0.004122,0.003614,-20.425583,25.920471,45.306580,,,,,,
1484030211.046969,-0.832024,0.918097,0.192514,-0.000246,-0.001651,-0.001226,-0.448999,-0.794447,-0.408967,0.004266,0.005232,0.004685,-20.425583,25.920471,45.306580,,,,,,
,,,,,,,,,,,,,,,,33.759122,-118.389368,314.037476,0.000000,225.351562,1484030211.004410
1484030211.066988,-0.831960,0.918055,0.192422,-0.002387,-0.000608,-0.001246,-0.448998,-0.794422,-0.409018,0.002968,0.005100,0.000342,-20.948914,26.221680,45.604248,,,,,,
1484030211.086977,-0.832106,0.918045,0.192496,-0.002390,-0.000609,-0.000179,-0.449063,-0.794416,-0.408957,0.000973,0.003354,0.004676,-20.576996,25.621033,45.457825,,,,,,
1484030211.106997,-0.832119,0.918071,0.192456,-0.002376,-0.001669,-0.002298,-0.449053,-0.794432,-0.408937,0.001955,0.004927,0.003130,-20.650879,25.846069,45.456604,,,,,,
1484030211.126986,-0.832091,0.918038,0.192372,-0.002387,-0.000608,-0.001245,-0.449061,-0.794411,-0.408968,0.002574,0.005807,0.002718,-20.724380,26.146057,45.379944,,,,,,
1484030211.147005,-0.832225,0.918057,0.192430,-0.001315,-0.001662,-0.000162,-0.449104,-0.794423,-0.408898,0.001518,0.005437,0.004769,-20.724380,26.146057,45.379944,,,,,,
1484030211.166994,-0.832200,0.918022,0.192374,-0.002389,-0.000609,-0.000179,-0.449115,-0.794402,-0.408927,0.002017,0.004958,0.002250,-20.875900,25.846252,45.381226,,,,,,
1484030211.187014,-0.832197,0.917977,0.192338,-0.002389,-0.000609,-0.000179,-0.449140,-0.794374,-0.408953,0.002180,0.005876,0.002718,-19.976776,25.694641,45.158325,,,,,,
1484030211.207003,-0.832215,0.917999,0.192321,-0.000222,-0.001657,-0.000142,-0.449134,-0.794388,-0.408933,0.002296,0.005219,0.003156,-20.204636,25.169312,44.710632,,,,,,
1484030211.227022,-0.832236,0.918010,0.192294,-0.001282,-0.001665,-0.002278,-0.449137,-0.794394,-0.408918,0.003427,0.005088,0.002104,-20.578384,25.395203,44.933960,,,,,,
1484030211.247011,-0.832244,0.918032,0.192277,-0.001289,-0.001667,-0.000145,-0.449127,-0.794408,-0.408902,0.003571,0.004018,0.003217,-20.578384,25.395203,44.933960,,,,,,
1484030211.267031,-0.832265,0.918023,0.192249,-0.001278,-0.002727,-0.001197,-0.449141,-0.794403,-0.408898,0.002165,0.005157,0.003136,-20.129593,25.169312,44.785767,,,,,,
1484030211.287020,-0.832238,0.917993,0.192187,-0.003434,0.000439,-0.001245,-0.449147,-0.794384,-0.408926,0.003148,0.006069,0.003881,-20.203461,25.394409,44.784485,,,,,,
1484030211.307039,-0.832237,0.918032,0.192159,-0.001300,0.000457,-0.001240,-0.449124,-0.794408,-0.408906,0.003491,0.004994,0.005082,-19.977783,25.543823,44.634094,,,,,,
1484030211.327028,-0.832266,0.918011,0.192157,-0.000237,0.000466,-0.000170,-0.449148,-0.794395,-0.408904,0.002280,0.006370,0.003493,-20.278458,25.394470,44.784424,,,,,,
1484030211.347048,-0.832234,0.918051,0.192112,-0.002351,-0.001675,-0.001215,-0.449112,-0.794419,-0.408897,0.003326,0.004716,0.002662,-20.278458,25.394470,44.784424,,,,,,
1484030211.367037,-0.832244,0.917998,0.192086,-0.002335,-0.000618,-0.000145,-0.449147,-0.794387,-0.408921,0.001943,0.005797,0.002976,-20.356277,24.869080,44.411926,,,,,,
1484030211.387026,-0.832326,0.918007,0.192099,-0.002324,-0.001679,-0.001197,-0.449175,-0.794393,-0.408879,0.001695,0.004796,0.003712,-19.678619,25.393188,44.485291,,,,,,
1484030211.407045,-0.832350,0.918031,0.192081,-0.001269,0.000455,-0.002289,-0.449171,-0.794407,-0.408855,0.002729,0.003163,0.003826,-19.979401,25.243530,44.410583,,,,,,
1484030211.427034,-0.832374,0.918058,0.192056,-0.001264,-0.000608,-0.001208,-0.449165,-0.794423,-0.408830,0.002479,0.003347,0.003755,-19.904999,25.093811,44.711426,,,,,,
1484030211.447054,-0.832317,0.918068,0.191971,-0.001260,-0.001670,-0.000128,-0.449136,-0.794430,-0.408850,0.002816,0.004604,0.002036,-19.904999,25.093811,44.711426,,,,,,
1484030211.467043,-0.832331,0.918071,0.191942,-0.001267,-0.000609,-0.000142,-0.449140,-0.794431,-0.408843,0.001538,0.003324,0.001708,-19.906357,24.868164,44.262573,,,,,,
1484030211.487063,-0.832364,0.918113,0.191959,-0.000205,0.000463,-0.001220,-0.449128,-0.794457,-0.408805,0.002290,0.005410,0.004020,-19.979919,25.094177,44.861389,,,,,,
1484030211.507052,-0.832350,0.918152,0.191926,-0.002322,-0.001678,-0.001198,-0.449100,-0.794481,-0.408791,0.003574,0.002901,0.003380,-20.204407,25.243896,44.410278,,,,,,
1484030211.527071,-0.832284,0.918133,0.191840,-0.001241,-0.000610,-0.000126,-0.449084,-0.794469,-0.408830,0.003558,0.005834,0.001192,-20.054749,25.168762,44.485901,,,,,,
1484030211.547060,-0.832280,0.918135,0.191821,-0.001238,-0.000609,-0.001193,-0.449081,-0.794470,-0.408831,0.001999,0.005118,0.002658,-20.054749,25.168762,44.485901,,,,,,
1484030211.567080,-0.832309,0.918140,0.191804,-0.001230,-0.001671,-0.001179,-0.449090,-0.794474,-0.408815,0.003121,0.005487,0.002611,-20.131363,24.868530,44.262207,,,,,,
1484030211.587069,-0.832381,0.918134,0.191803,-0.001225,-0.002733,-0.000098,-0.449123,-0.794470,-0.408786,0.001903,0.004645,0.002185,-19.980026,25.093811,44.636353,,,,,,
1484030211.607088,-0.832449,0.918134,0.191819,-0.000166,-0.001662,-0.000109,-0.449151,-0.794470,-0.408756,0.001153,0.003805,0.004032,-19.754410,25.243225,44.410950,,,,,,
1484030211.627077,-0.832508,0.918122,0.191841,-0.001240,-0.000610,-0.000126,-0.449182,-0.794462,-0.408736,0.002039,0.005797,0.003615,-20.055679,24.944336,44.862000,,,,,,
1484030211.647097,-0.832603,0.918106,0.191892,-0.001232,-0.001672,-0.000112,-0.449230,-0.794453,-0.408702,0.001659,0.006092,0.003916,-20.055679,24.944336,44.862000,,,,,,
1484030211.667086,-0.832635,0.918057,0.191906,-0.002299,-0.001681,-0.000114,-0.449272,-0.794423,-0.408714,0.002525,0.004475,0.002601,-19.604401,25.242981,44.411194,,,,,,
1484030211.687105,-0.832581,0.918024,0.191844,-0.001221,0.000451,-0.000123,-0.449269,-0.794403,-0.408755,0.003667,0.005951,0.002612,-20.204361,25.244019,44.485291,,,,,,
1484030211.707094,-0.832588,0.918061,0.191811,-0.001210,-0.000609,-0.001176,-0.449251,-0.794425,-0.408733,0.003175,0.004401,0.003017,-20.205627,24.944702,44.936768,,,,,,
1484030211.727114,-0.832586,0.918076,0.191766,-0.002269,-0.001680,-0.001164,-0.449241,-0.794435,-0.408725,0.002631,0.004457,0.002796,-20.131882,24.719177,44.713013,,,,,,
1484030211.747103,-0.832600,0.918125,0.191745,-0.001210,-0.000609,-0.001176,-0.449218,-0.794464,-0.408693,0.003478,0.003647,0.005098,-20.131882,24.719177,44.713013,,,,,,
1484030211.767122,-0.832618,0.918110,0.191704,-0.002264,-0.002743,-0.000084,-0.449234,-0.794455,-0.408693,0.001526,0.003684,0.002550,-20.354996,25.094482,44.710754,,,,,,
1484030211.787111,-0.832664,0.918161,0.191684,-0.003339,-0.000627,-0.002248,-0.449223,-0.794486,-0.408645,0.003040,0.003486,0.003158,-20.654129,25.245361,44.934631,,,,,,
1484030211.807131,-0.832658,0.918140,0.191632,-0.002271,-0.001681,-0.000098,-0.449232,-0.794474,-0.408659,0.002348,0.004511,0.002698,-20.656128,24.869995,44.711426,,,,,,
1484030211.827120,-0.832690,0.918162,0.191619,-0.000138,-0.001662,-0.000092,-0.449233,-0.794487,-0.408633,0.002212,0.002479,0.003252,-20.054184,25.244324,44.860474,,,,,,
1484030211.847139,-0.832714,0.918179,0.191602,-0.001173,-0.001669,-0.001145,-0.449233,-0.794497,-0.408613,0.002913,0.004641,0.003248,-20.054184,25.244324,44.860474,,,,,,
1484030211.867128,-0.832749,0.918203,0.191598,-0.001180,-0.000607,-0.001159,-0.449233,-0.794512,-0.408584,0.001540,0.004931,0.003829,-20.129364,25.243896,44.485413,,,,,,
1484030211.887148,-0.832714,0.918178,0.191527,-0.001176,-0.001670,-0.000078,-0.449233,-0.794497,-0.408613,0.003249,0.004671,0.001432,-19.829254,25.243713,44.710815,,,,,,
1484030211.907137,-0.832657,0.918170,0.191436,-0.002236,-0.001677,-0.002214,-0.449214,-0.794492,-0.408643,0.003292,0.005109,0.002622,-20.205002,25.094299,44.710999,,,,,,
1484030211.927157,-0.832712,0.918189,0.191446,-0.001180,-0.000607,-0.001159,-0.449226,-0.794503,-0.408608,0.002860,0.004876,0.004662,-19.979050,25.244507,45.085571,,,,,,
1484030211.947146,-0.832697,0.918228,0.191385,-0.002246,-0.000616,-0.001162,-0.449197,-0.794527,-0.408594,0.003060,0.003572,0.003840,-19.979050,25.244507,45.085571,,,,,,
1484030211.967165,-0.832713,0.918200,0.191357,-0.002242,-0.001679,-0.000081,-0.449220,-0.794510,-0.408602,0.001252,0.004715,0.002214,-20.205338,25.019409,44.786377,,,,,,
1484030211.987154,-0.832710,0.918208,0.191304,-0.001175,-0.001670,-0.000078,-0.449214,-0.794515,-0.408599,0.002330,0.004338,0.002837,-20.279633,25.169373,44.710510,,,,,,
1484030212.007174,-0.832747,0.918195,0.191309,-0.000090,0.000468,-0.002221,-0.449237,-0.794507,-0.408589,0.001804,0.005200,0.003819,-20.355774,24.944397,44.636536,,,,,,
1484030212.027163,-0.832650,0.918193,0.191217,-0.001156,-0.000605,-0.000076,-0.449198,-0.794506,-0.408634,0.003840,0.004635,0.000965,-19.680420,25.018372,44.637146,,,,,,
1484030212.047182,-0.832639,0.918219,0.191179,-0.002219,-0.000613,-0.001146,-0.449179,-0.794521,-0.408625,0.002829,0.005031,0.002955,-19.680420,25.018372,44.637146,,,,,,
1484030212.067171,-0.832700,0.918272,0.191190,-0.002210,-0.002738,0.001015,-0.449172,-0.794554,-0.408569,0.003783,0.003431,0.004364,-20.129883,25.094543,44.936157,,,,,,
,,,,,,,,,,,,,,,,33.759122,-118.389368,314.050903,0.000000,225.351562,1484030212.004412
1484030212.087191,-0.832664,0.918282,0.191107,-0.001144,-0.001665,-0.001129,-0.449152,-0.794560,-0.408580,0.003580,0.004460,0.002772,-19.228790,25.318115,44.861389,,,,,,
1484030212.107180,-0.832681,0.918244,0.191063,-0.001144,-0.001665,-0.001129,-0.449181,-0.794537,-0.408593,0.000817,0.005032,0.001671,-20.130783,24.944092,44.636841,,,,,,
1484030212.127199,-0.832617,0.918269,0.190959,-0.002203,-0.002736,-0.001118,-0.449140,-0.794552,-0.408608,0.001417,0.002621,0.002190,-19.755035,25.093506,44.636658,,,,,,
1484030212.147188,-0.832515,0.918291,0.190837,-0.001141,-0.001664,-0.002196,-0.449085,-0.794565,-0.408642,0.004154,0.003550,0.001934,-19.755035,25.093506,44.636658,,,,,,
1484030212.167208,-0.832485,0.918280,0.190770,-0.002180,-0.001669,-0.002183,-0.449080,-0.794559,-0.408661,0.003111,0.005710,0.002854,-19.906525,24.793701,44.637939,,,,,,
