timestamp(unix),attitude_roll(radians),attitude_pitch(radians),attitude_yaw(radians),rotation_rate_x(radians/s),rotation_rate_y(radians/s),rotation_rate_z(radians/s),gravity_x(G),gravity_y(G),gravity_z(G),user_acc_x(G),user_acc_y(G),user_acc_z(G),magnetic_field_x(microteslas),magnetic_field_y(microteslas),magnetic_field_z(microteslas),latitude(degree),longitude(degree),altitude(meter),speed(m/s),course(degree),timestamp(unix)
1484020914.429276,0.025151,0.567395,2.980958,-0.269050,0.253242,0.009319,0.021207,-0.537437,-0.843037,0.025942,0.018288,0.029499,14.810425,12.157043,4.928284,,,,,,
1484020914.449265,0.030507,0.562629,2.981354,-0.239309,0.268359,0.014536,0.025800,-0.533412,-0.845462,-0.003110,0.005961,0.030002,14.587494,12.532959,5.301086,,,,,,
,,,,,,,,,,,,,,,,33.759179,-118.389180,321.515594,-1.000000,-1.000000,1484020914.406276
,,,,,,,,,,,,,,,,33.759179,-118.389180,321.515594,-1.000000,-1.000000,1484020909.381907
1484020914.469254,0.034462,0.557217,2.982585,-0.338386,0.236668,0.052005,0.029243,-0.528827,-0.848226,-0.012367,-0.016706,0.009389,15.113495,12.756897,5.075684,,,,,,
1484020914.489273,0.036650,0.549113,2.984985,-0.447408,0.097653,0.109001,0.031255,-0.521931,-0.852415,-0.008687,-0.021893,-0.009996,15.339691,12.981689,5.224915,,,,,,
1484020914.509262,0.032302,0.539126,2.988314,-0.496980,-0.283919,0.139523,0.027715,-0.513386,-0.857710,0.015085,-0.009563,-0.061022,15.339691,12.981689,5.224915,,,,,,
1484020914.529282,0.022760,0.528826,2.992388,-0.540023,-0.393676,0.177121,0.019650,-0.504520,-0.863176,-0.003613,-0.021893,-0.020628,15.117874,13.582642,5.596619,,,,,,
1484020914.549271,0.011920,0.516960,2.998583,-0.634732,-0.327744,0.296503,0.010362,-0.494240,-0.869264,-0.037584,-0.003425,-0.007140,14.594696,14.032043,4.693542,,,,,,
1484020914.569290,0.006517,0.502799,3.006253,-0.765016,0.114825,0.333984,0.005711,-0.481880,-0.876218,-0.041142,-0.003151,0.037489,14.224060,14.932251,4.463501,,,,,,
1484020914.589279,0.009274,0.486244,3.014520,-0.872956,0.413199,0.386244,0.008199,-0.467308,-0.884057,-0.034521,-0.046043,-0.013023,13.926758,15.457947,4.610413,,,,,,
1484020914.609299,0.013732,0.467941,3.024305,-0.948338,0.489987,0.437271,0.012255,-0.451049,-0.892415,-0.031787,-0.042618,-0.039867,13.926758,15.457947,4.610413,,,,,,
1484020914.629288,0.023744,0.448076,3.033063,-1.022878,0.811108,0.322936,0.021398,-0.433233,-0.901028,-0.012624,0.010045,0.040631,13.932877,16.658203,4.829468,,,,,,
1484020914.649307,0.038634,0.428406,3.038438,-0.974833,0.873262,0.156927,0.035133,-0.415421,-0.908950,0.004600,0.062806,0.022781,14.461258,17.332520,4.826843,,,,,,
1484020914.669296,0.053651,0.409419,3.040933,-0.947691,0.722897,0.009678,0.049193,-0.398076,-0.916032,-0.008299,0.085866,0.009920,14.542145,18.458130,5.346313,,,,,,
1484020914.689316,0.064346,0.389982,3.039537,-1.004436,0.404137,-0.209170,0.059474,-0.380172,-0.923002,0.016316,0.069182,-0.001376,15.220230,19.057434,5.569397,,,,,,
1484020914.709305,0.073296,0.367844,3.032940,-1.115933,0.299387,-0.476880,0.068332,-0.359605,-0.930599,0.048444,0.037110,0.001690,15.220230,19.057434,5.569397,,,,,,
1484020914.729294,0.082999,0.346359,3.024214,-0.966159,0.379240,-0.462579,0.077981,-0.339475,-0.937377,-0.023980,-0.009936,0.036971,15.158630,21.683289,6.081116,,,,,,
1484020914.749313,0.095585,0.330062,3.018704,-0.695910,0.674387,-0.242806,0.090288,-0.324101,-0.941704,-0.015398,-0.049266,0.043617,15.315781,23.108093,6.149231,,,,,,
1484020914.769302,0.111051,0.318635,3.015794,-0.467350,0.626472,-0.223384,0.105245,-0.313271,-0.943814,0.010218,0.003151,0.031628,15.545868,24.083496,6.594727,,,,,,
1484020914.789322,0.117531,0.312381,3.011442,-0.206814,0.153159,-0.224887,0.111586,-0.307326,-0.945039,0.080278,-0.002474,-0.038878,16.299316,24.757568,6.742554,,,,,,
1484020914.809311,0.130141,0.309149,3.008601,-0.121418,0.974407,-0.115020,0.123622,-0.304248,-0.944537,-0.023570,0.012515,0.013477,16.299316,24.757568,6.742554,,,,,,
1484020914.829331,0.150695,0.306658,3.007428,-0.113561,0.902243,-0.069243,0.143121,-0.301874,-0.942543,-0.019922,0.081125,-0.055213,16.450729,24.983154,7.266541,,,,,,
1484020914.849320,0.163459,0.303728,3.005366,-0.128864,0.405371,-0.156551,0.155283,-0.299079,-0.941509,0.029028,0.061912,-0.065159,17.278152,25.432434,7.640503,,,,,,
1484020914.869339,0.166749,0.300282,3.002307,-0.174974,-0.017179,-0.187449,0.158550,-0.295789,-0.942003,0.051472,0.038938,-0.005522,17.954544,25.657166,8.165466,,,,,,
1484020914.889315,0.162865,0.294862,2.999362,-0.263049,-0.382099,-0.161525,0.155148,-0.290607,-0.944180,0.046512,0.009373,-0.015201,17.729721,25.658020,8.540100,,,,,,
1484020914.909335,0.153270,0.290677,2.999324,-0.157312,-0.499244,0.078183,0.146266,-0.286601,-0.946819,-0.015178,-0.023763,0.031810,17.729721,25.658020,8.540100,,,,,,
1484020914.929324,0.139748,0.290328,3.006855,-0.026485,-0.635490,0.534734,0.133464,-0.286266,-0.948809,-0.027034,-0.063465,-0.030210,17.432617,26.258240,8.311646,,,,,,
1484020914.949343,0.120797,0.293809,3.023218,0.163922,-0.731890,0.945063,0.115339,-0.289600,-0.950173,-0.086897,-0.059643,-0.102241,16.833710,26.557861,7.484253,,,,,,
1484020914.969332,0.098115,0.305228,3.044852,0.656656,-0.945391,1.132761,0.093430,-0.300511,-0.949191,-0.142304,-0.029934,-0.115475,15.929611,25.808228,6.811646,,,,,,
1484020914.989352,0.069948,0.326234,3.060728,1.159298,-1.289617,0.471084,0.066204,-0.320478,-0.944940,-0.073010,-0.043047,-0.065940,15.246597,24.233826,6.518555,,,,,,
1484020915.009341,0.043144,0.350008,3.051619,1.212563,-1.686136,-0.671151,0.040515,-0.342905,-0.938496,-0.046542,-0.206732,-0.140896,15.246597,24.233826,6.518555,,,,,,
1484020915.029330,0.012639,0.375047,3.039848,1.305745,-1.609272,-0.275133,0.011760,-0.366316,-0.930416,-0.214534,-0.096239,-0.120060,14.788498,22.732666,5.325317,,,,,,
1484020915.049349,-0.013198,0.399987,3.045718,1.231715,-1.009852,0.539039,-0.012156,-0.389406,-0.920986,-0.158605,-0.033964,-0.157963,12.831238,21.384094,4.279114,,,,,,
1484020915.069338,-0.035855,0.426640,3.054747,1.469792,-0.869363,0.127218,-0.032634,-0.413814,-0.909776,-0.226994,-0.052876,-0.321104,12.072723,19.734375,3.761292,,,,,,
1484020915.089358,-0.049573,0.462863,3.047252,1.979931,-1.002101,-0.704700,-0.044339,-0.446512,-0.893679,-0.200473,-0.084937,-0.252363,11.014053,18.010925,3.693298,,,,,,
1484020915.109347,-0.068827,0.504429,3.029457,2.005953,-1.532407,-0.973833,-0.060207,-0.483307,-0.873378,-0.121174,-0.093093,-0.126164,11.014053,18.010925,3.693298,,,,,,
1484020915.129366,-0.087853,0.543279,3.009119,1.811742,-1.337619,-1.067635,-0.075107,-0.516946,-0.852717,-0.115002,-0.054084,-0.053854,11.309006,17.034912,3.323608,,,,,,
1484020915.149355,-0.098191,0.578865,2.988092,1.602591,-0.891462,-1.061358,-0.082062,-0.547074,-0.833052,-0.082428,0.007676,0.007734,10.325363,15.311340,3.255737,,,,,,
1484020915.169375,-0.094304,0.608713,2.964648,1.273603,-0.219103,-1.127755,-0.077251,-0.571812,-0.816739,0.039638,0.053974,0.093046,9.490204,13.287476,3.189575,,,,,,
1484020915.189364,-0.080658,0.632334,2.941112,0.996044,0.056497,-1.013817,-0.064992,-0.591029,-0.804028,0.114065,0.113063,0.130688,9.861832,12.611938,3.193542,,,,,,
1484020915.209383,-0.068182,0.650356,2.918799,0.745604,-0.148522,-0.945683,-0.054222,-0.605470,-0.794019,0.168694,0.153978,0.143933,9.861832,12.611938,3.193542,,,,,,
1484020915.229373,-0.061726,0.664882,2.898180,0.657180,-0.371314,-0.794722,-0.048547,-0.616966,-0.785491,0.214868,0.162453,0.151213,10.458939,12.011353,3.422485,,,,,,
1484020915.249393,-0.061399,0.678470,2.881358,0.634033,-0.620069,-0.650696,-0.047771,-0.627603,-0.777067,0.278378,0.180856,0.133283,10.307571,11.711975,3.648743,,,,,,
1484020915.269382,-0.069584,0.691068,2.869617,0.566752,-0.862955,-0.387416,-0.053576,-0.637360,-0.768701,0.292910,0.166245,0.166101,10.006149,11.412537,3.799805,,,,,,
1484020915.289371,-0.086463,0.701261,2.865696,0.471342,-1.076422,-0.063811,-0.065978,-0.645182,-0.761175,0.263930,0.134119,0.146902,10.230606,11.336853,3.500427,,,,,,
1484020915.309390,-0.114951,0.710942,2.870960,0.527550,-1.310857,0.260506,-0.086912,-0.652548,-0.752747,0.180128,0.116049,0.103027,10.230606,11.336853,3.500427,,,,,,
1484020915.329379,-0.149383,0.720766,2.883272,0.546078,-1.293887,0.442720,-0.111814,-0.659961,-0.742933,0.131102,0.076968,0.085356,9.177948,10.813232,3.426514,,,,,,
1484020915.349398,-0.180276,0.728372,2.896425,0.383910,-0.979970,0.399691,-0.133805,-0.665655,-0.734166,0.105179,0.016684,0.077000,8.124557,10.139709,3.353333,,,,,,
1484020915.369387,-0.204032,0.732373,2.905612,0.210515,-0.968567,0.214523,-0.150665,-0.668636,-0.728166,0.089005,0.042446,-0.044508,6.246216,9.541504,2.678528,,,,,,
1484020915.389407,-0.244425,0.743288,2.909567,0.973089,-2.589043,-0.067892,-0.178170,-0.676713,-0.714364,0.078592,0.068558,-0.394309,5.419403,9.167908,2.754089,,,,,,
1484020915.409396,-0.325074,0.782426,2.920916,2.621996,-4.248597,-0.230994,-0.226505,-0.705002,-0.672062,0.057911,0.104004,-0.433605,5.419403,9.167908,2.754089,,,,,,
1484020915.429415,-0.442715,0.845316,2.946716,3.487033,-5.320458,-0.450004,-0.284237,-0.748181,-0.599529,-0.007404,-0.018375,-0.261586,3.541412,8.570740,2.754272,,,,,,
1484020915.449404,-0.583634,0.914264,2.982442,3.565629,-5.820409,-0.895377,-0.336353,-0.792114,-0.509336,-0.098218,-0.088639,-0.075915,0.907013,6.699585,2.684692,,,,,,
1484020915.469424,-0.728294,0.982889,3.020736,3.298679,-5.574902,-1.399632,-0.369154,-0.832103,-0.413919,-0.223360,-0.095997,0.059992,-2.403976,4.381348,3.891296,,,,,,
1484020915.489413,-0.868624,1.050402,3.057059,2.870029,-5.516543,-1.947728,-0.379600,-0.867623,-0.321145,-0.163491,-0.065970,0.137246,-6.324768,-0.033936,6.457520,,,,,,
1484020915.509432,-1.002335,1.111878,3.091670,2.202190,-4.637038,-1.925052,-0.373311,-0.896532,-0.238472,-0.122843,-0.080381,0.274803,-6.324768,-0.033936,6.457520,,,,,,
1484020915.529421,-1.061015,1.152887,3.102318,0.499997,-0.895343,-1.522030,-0.354248,-0.913939,-0.198050,-0.256852,-0.045854,0.489828,-7.830627,-1.379089,8.186951,,,,,,
1484020915.549441,-0.959802,1.168396,3.024363,-1.682781,2.638680,-1.484535,-0.320774,-0.920123,-0.224670,-0.121334,0.083469,0.485641,-8.960678,-2.500671,9.315857,,,,,,
1484020915.569430,-0.766813,1.160059,2.890043,-2.477421,3.732440,-1.317877,-0.277042,-0.916827,-0.287536,0.150440,0.190493,0.231643,-7.686768,-2.653625,8.643555,,,,,,
1484020915.589419,-0.592968,1.135662,2.779372,-2.280710,3.458703,-0.798516,-0.235563,-0.906813,-0.349571,0.369886,0.320952,0.072731,-2.355133,-1.016174,5.568359,,,,,,
1484020915.609438,-0.496622,1.108153,2.716960,-1.510970,0.783261,-0.186968,-0.212650,-0.894876,-0.392399,0.693608,0.417520,-0.324001,-2.355133,-1.016174,5.568359,,,,,,
1484020915.629427,-0.549026,1.099212,2.735759,0.810618,-3.442953,1.058633,-0.237079,-0.890850,-0.387531,0.972049,0.543163,-0.603634,-0.473785,0.329834,4.814453,,,,,,
1484020915.649447,-0.799851,1.121887,2.872685,3.987082,-8.035051,1.973429,-0.311275,-0.900921,-0.302405,0.906048,0.507092,-0.656595,-1.896210,0.782898,5.410034,,,,,,
1484020915.669436,-1.233833,1.140808,3.135787,5.790382,-10.634067,2.058958,-0.393417,-0.908971,-0.137823,0.409805,0.444509,-0.235071,-5.726089,-0.260315,6.084595,,,,,,
1484020915.689456,-1.719165,1.125686,-2.853716,6.140566,-10.885614,0.790857,-0.425827,-0.902563,0.063647,-0.255066,0.123663,0.399457,-17.583115,-2.775940,17.179321,,,,,,
1484020915.709445,-2.115346,1.090758,-2.624176,4.785868,-8.430065,-0.564993,-0.395017,-0.886977,0.239234,-0.657504,-0.234223,0.934914,-17.583115,-2.775940,17.179321,,,,,,
1484020915.729465,-2.345470,1.064304,-2.490084,2.298059,-3.699746,-0.967689,-0.346686,-0.874451,0.339328,-0.695047,-0.606796,1.371289,-20.285782,-4.035950,24.456604,,,,,,
1484020915.749453,-2.368717,1.072209,-2.466962,-1.289185,1.931994,-0.471431,-0.333868,-0.878259,0.342336,-0.597651,-0.706565,1.587718,-19.840927,-5.529663,29.114685,,,,,,
1484020915.769473,-2.192987,1.123822,-2.566455,-4.559380,5.482219,-0.669781,-0.351239,-0.901759,0.251916,-0.734760,-0.531178,1.373877,-20.068954,-6.129517,29.042297,,,,,,
1484020915.789462,-1.844609,1.200950,-2.801484,-6.474756,7.272491,-1.956542,-0.348006,-0.932383,0.097744,-0.780198,-0.226644,0.935475,-18.867142,-5.387024,25.215454,,,,,,
1484020915.809481,-1.298439,1.254655,3.073286,-6.877322,8.458897,-2.926977,-0.299441,-0.950442,-0.083633,-0.430798,0.054263,0.535751,-18.867142,-5.387024,25.215454,,,,,,
1484020915.829470,-0.714846,1.239710,2.640151,-5.595881,8.597591,-3.031809,-0.213084,-0.945690,-0.245491,-0.018086,0.340313,0.204476,-12.036224,-2.867188,11.863098,,,,,,
1484020915.849459,-0.291312,1.190571,2.360792,-3.881401,7.714564,-3.123971,-0.106592,-0.928581,-0.355493,0.176462,0.577019,0.170084,-5.652908,-0.709229,6.911865,,,,,,
1484020915.869479,0.012956,1.138790,2.178359,-2.594976,6.279250,-3.246381,0.005424,-0.908128,-0.418658,0.318215,0.675721,0.179614,-0.014816,2.129028,4.731140,,,,,,
1484020915.889459,0.231312,1.093140,2.047385,-1.566640,4.289062,-3.036762,0.105388,-0.888075,-0.447455,0.600819,0.716261,0.238792,5.546249,4.370239,4.428284,,,,,,
1484020915.909477,0.371635,1.052381,1.956691,-1.235063,2.306185,-2.416464,0.179937,-0.868605,-0.461679,0.961588,0.750960,0.307717,5.546249,4.370239,4.428284,,,,,,
1484020915.929466,0.437032,1.016385,1.912492,-1.158601,0.891774,-1.344743,0.222818,-0.850210,-0.476964,1.393378,0.950751,0.126439,12.087204,7.363464,6.448181,,,,,,
1484020915.949486,0.441766,0.998464,1.907896,-0.439965,-0.531178,0.090505,0.231552,-0.840640,-0.489600,1.890824,1.142886,-0.110696,13.520844,9.086487,6.516663,,,,,,
1484020915.969476,0.355795,1.014057,1.944471,0.932373,-4.285371,1.932946,0.184068,-0.848983,-0.495325,2.185241,1.356917,-0.487814,13.599564,9.836182,6.438110,,,,,,
1484020915.989495,0.136779,1.075349,2.053265,3.189485,-7.163975,4.316657,0.064825,-0.879756,-0.470985,1.939981,1.574657,-0.643502,10.970673,9.163513,5.387451,,,,,,
1484020916.009484,-0.259386,1.157806,2.318675,5.201578,-8.251148,6.138322,-0.102941,-0.915925,-0.387924,1.241750,1.746934,-0.614853,10.970673,9.163513,5.387451,,,,,,
1484020916.029504,-0.853394,1.202794,2.767456,7.051414,-9.240873,5.633060,-0.271079,-0.933048,-0.236512,0.032996,1.733326,-0.553573,5.330765,6.245972,4.718567,,,,,,
1484020916.049493,-1.496796,1.189177,-3.017050,8.615091,-8.590880,3.006160,-0.371404,-0.928063,-0.027534,-1.014368,1.351891,-0.424736,-9.550629,-0.475037,9.154846,,,,,,
1484020916.069512,-2.015037,1.123632,-2.597442,8.842346,-5.148449,0.996449,-0.390440,-0.901677,0.185838,-1.306078,0.952885,-0.030427,-15.639130,-3.831116,15.687561,,,,,,
1484020916.089500,-2.308323,1.017775,-2.316884,8.398480,-0.777940,0.338799,-0.388763,-0.850942,0.353216,-1.252808,0.690907,0.581537,-18.051590,-7.115479,23.650330,,,,,,
1484020916.109520,-2.469254,0.897216,-2.117828,8.241371,0.133269,-0.357433,-0.388507,-0.781593,0.488032,-0.764829,0.408073,1.539358,-18.051590,-7.115479,23.650330,,,,,,
1484020916.129509,-2.588636,0.784274,-1.972936,6.594853,-0.916823,-0.782308,-0.371794,-0.706312,0.602406,-0.462542,0.226621,1.999477,-18.357956,-9.055054,30.334534,,,,,,
1484020916.149498,-2.627949,0.719954,-1.910588,2.052208,1.464132,0.061550,-0.369418,-0.659350,0.654819,-0.031843,0.006548,2.964489,-16.252197,-9.115173,42.413025,,,,,,
1484020916.169518,-2.507033,0.728945,-1.950213,-2.981828,6.596054,1.547965,-0.442173,-0.666083,0.600679,0.091771,-0.109277,3.396208,-16.775436,-8.961426,44.361450,,,,,,
1484020916.189507,-2.258449,0.773618,-2.088797,-6.151075,7.794880,2.233327,-0.552807,-0.698728,0.454074,0.134228,-0.062823,3.019116,-18.947281,-7.988220,40.978394,,,,,,
1484020916.209527,-1.974393,0.819718,-2.291596,-7.870896,6.510114,1.215133,-0.627597,-0.730953,0.268009,-0.527020,0.064755,2.449231,-18.947281,-7.988220,40.978394,,,,,,
1484020916.229516,-1.653871,0.858626,-2.547601,-9.254841,6.826619,-0.464378,-0.651224,-0.756945,0.054225,-1.140020,0.263125,1.883519,-21.268448,-6.495667,33.692383,,,,,,
1484020916.249536,-1.263218,0.869132,-2.850608,-9.883722,8.696642,-2.329807,-0.615197,-0.763769,-0.195423,-1.339821,0.555609,1.344349,-19.971756,-0.448242,16.639038,,,,,,
1484020916.269525,-0.846283,0.836131,3.124047,-9.359739,9.333740,-4.318491,-0.501965,-0.742055,-0.444282,-1.171757,0.827962,0.852195,-15.827164,4.258789,8.746704,,,,,,
1484020916.289544,-0.462711,0.764216,2.847410,-8.284303,9.189957,-6.175772,-0.322250,-0.691971,-0.646011,-1.010239,0.973237,0.627976,-8.823425,10.614136,2.650513,,,,,,
1484020916.309533,-0.125054,0.661084,2.611146,-7.026607,9.140672,-7.505823,-0.098451,-0.613973,-0.783163,-0.963576,1.191060,0.546560,-8.823425,10.614136,2.650513,,,,,,
1484020916.329553,0.149808,0.537108,2.420534,-5.454574,7.615909,-8.327953,0.128233,-0.511653,-0.849569,-0.676573,1.381038,0.359258,-0.689697,17.573669,0.527893,,,,,,
1484020916.349541,0.346758,0.408169,2.250308,-3.669716,5.065556,-9.323579,0.311932,-0.396929,-0.863218,-0.543377,1.540789,0.041929,7.750259,25.437988,1.776245,,,,,,
1484020916.369560,0.475784,0.282190,2.082263,-1.889967,2.782348,-9.979325,0.439920,-0.278459,-0.853775,-0.441796,1.665682,-0.097290,14.385696,46.592041,11.130432,,,,,,
1484020916.389549,0.535534,0.176886,1.913775,0.228852,-0.051986,-9.603922,0.502338,-0.175965,-0.846577,-0.104801,1.837296,-0.373516,13.770279,58.148376,14.746765,,,,,,
1484020916.409570,0.525627,0.112323,1.737474,2.491505,-2.414035,-8.902668,0.498594,-0.112087,-0.859558,0.289645,1.958522,-0.799865,13.770279,58.148376,14.746765,,,,,,
1484020916.429559,0.482783,0.088276,1.553957,3.859958,-3.438567,-8.508642,0.462438,-0.088161,-0.882258,0.300792,2.109936,-0.886892,9.544052,67.682983,16.942688,,,,,,
1484020916.449548,0.415495,0.101767,1.357768,5.621480,-4.889061,-8.675263,0.401555,-0.101592,-0.910183,0.319835,2.241698,-1.106815,3.648773,73.690857,16.303772,,,,,,
1484020916.469567,0.322724,0.169393,1.135110,8.095729,-6.873150,-9.380988,0.312612,-0.168584,-0.934801,0.608928,2.465138,-1.372526,-9.854523,73.479370,11.784607,,,,,,
1484020916.489556,0.222038,0.292579,0.896045,9.522310,-8.127939,-9.667425,0.210859,-0.288422,-0.933997,0.997316,2.600998,-1.356301,-16.641953,66.285156,8.885376,,,,,,
1484020916.509576,0.143423,0.451240,0.659712,9.954309,-8.167066,-9.215568,0.128625,-0.436082,-0.890667,1.162741,2.587464,-1.335956,-16.641953,66.285156,8.885376,,,,,,
1484020916.529565,0.122115,0.630085,0.437063,10.270137,-5.718763,-7.751805,0.098422,-0.589214,-0.801960,1.206480,2.468532,-1.449840,-22.780380,53.766968,7.213806,,,,,,
1484020916.549583,0.190010,0.825855,0.223746,11.345541,-2.544729,-5.604352,0.128039,-0.735127,-0.665728,1.062207,2.414861,-1.535352,-26.153854,38.998047,7.957581,,,,,,
1484020916.569572,0.363809,1.037643,-0.022636,12.620364,-0.653420,-3.512895,0.180855,-0.861209,-0.474985,0.874001,2.441287,-1.265478,-21.660049,7.273682,12.847961,,,,,,
1484020916.589592,0.750338,1.233839,-0.445985,12.829757,0.401027,-1.927474,0.225443,-0.943765,-0.241833,0.501943,2.386728,-0.561192,-17.889435,-4.198120,18.760986,,,,,,
1484020916.609581,1.538128,1.320083,-1.234476,11.014843,2.353000,-0.477089,0.247962,-0.968736,-0.008103,0.053567,2.188340,0.131822,-17.889435,-4.198120,18.760986,,,,,,
1484020916.629601,2.255344,1.264154,-1.899404,8.504079,4.585716,0.771325,0.233852,-0.953352,0.190873,-0.222744,1.929778,0.288604,-15.365967,-10.339417,27.120483,,,,,,
1484020916.649590,2.667814,1.161584,-2.221531,7.058029,5.804067,1.236310,0.181537,-0.917435,0.354060,-0.475284,1.730011,0.332479,-14.694580,-11.828857,34.778870,,,,,,
1484020916.669610,2.906181,1.039590,-2.366082,6.989221,5.172221,0.824265,0.118155,-0.862197,0.492602,-0.590979,1.603331,0.289793,-16.036392,-10.768188,40.546631,,,,,,
1484020916.689599,3.054387,0.894452,-2.433626,7.723606,4.284919,0.683491,0.054517,-0.779866,0.623568,-0.582151,1.385838,0.485777,-20.051498,-4.895630,51.611206,,,,,,
1484020916.709619,-3.115988,0.748601,-2.468292,6.955738,4.775572,1.218740,-0.018757,-0.680615,0.732401,-0.454266,1.036145,1.128530,-20.051498,-4.895630,51.611206,,,,,,
1484020916.729608,-2.971455,0.642098,-2.503849,3.784147,7.062253,2.165901,-0.135597,-0.598877,0.789278,-0.357231,0.564087,1.903715,-22.798706,0.067444,57.582275,,,,,,
1484020916.749597,-2.779101,0.609474,-2.554861,-0.572591,8.618417,2.430349,-0.290758,-0.572436,0.766666,-0.335890,0.176150,2.451031,-27.040573,6.230774,62.195068,,,,,,
1484020916.769616,-2.559323,0.629137,-2.639653,-3.325763,8.342416,2.777040,-0.444631,-0.588448,0.675302,-0.183650,-0.087471,2.372168,-32.491104,11.187988,61.562073,,,,,,
1484020916.789604,-2.330683,0.655383,-2.764835,-4.713116,7.314109,3.021370,-0.574722,-0.609463,0.546122,-0.207962,-0.326389,2.168569,-41.316101,17.407959,49.367798,,,,,,
1484020916.809624,-2.102828,0.678285,-2.912721,-5.697585,6.643925,2.144312,-0.671023,-0.627459,0.394997,-0.798016,-0.532804,1.942573,-41.316101,17.407959,49.367798,,,,,,
1484020916.829613,-1.880273,0.713309,-3.066997,-6.313212,5.843487,-0.115463,-0.720276,-0.654339,0.230308,-1.472213,-0.577472,1.509636,-44.152161,20.926270,42.070984,,,,,,
1484020916.849633,-1.673916,0.773837,3.052885,-6.583916,4.107947,-2.712745,-0.711435,-0.698884,0.073624,-1.713064,-0.408248,0.996459,-44.740524,23.991028,34.704712,,,,,,
1484020916.869622,-1.482147,0.854999,2.868152,-6.105395,2.184299,-4.687904,-0.653642,-0.754570,-0.058097,-1.664900,0.000237,0.368049,-42.563202,25.177002,27.502075,,,,,,
1484020916.889641,-1.303768,0.945003,2.667199,-4.832462,0.355953,-6.047622,-0.564982,-0.810498,-0.154557,-1.433538,0.414258,-0.224212,-39.719513,24.489075,21.734741,,,,,,
1484020916.909630,-1.132096,1.047823,2.443468,-3.426080,-1.473315,-7.443211,-0.452162,-0.866338,-0.212152,-1.284487,0.736516,-0.576636,-39.719513,24.489075,21.734741,,,,,,
1484020916.929649,-0.913314,1.156868,2.146881,-2.652776,-2.777636,-8.516937,-0.318362,-0.915548,-0.245800,-1.075864,1.053564,-0.637486,-32.616943,20.569885,16.065002,,,,,,
1484020916.949638,-0.549599,1.243821,1.685941,-2.250676,-3.621579,-9.290661,-0.167767,-0.947018,-0.273881,-0.884998,1.340542,-0.631285,-28.812378,16.661560,14.290283,,,,,,
1484020916.969658,-0.029315,1.256491,1.062674,-2.223331,-3.612606,-9.538150,-0.009062,-0.951011,-0.309023,-0.673846,1.574806,-0.499357,-24.857208,12.828674,12.965393,,,,,,
1484020916.989647,0.389872,1.172358,0.546089,-2.587200,-3.146539,-9.563511,0.147459,-0.921668,-0.358864,-0.461043,1.806846,-0.478935,-21.050354,9.296387,11.938782,,,,,,
1484020917.009666,0.611845,1.028285,0.232025,-2.939973,-2.942379,-9.804014,0.296545,-0.856415,-0.422629,-0.218695,2.029876,-0.678751,-21.050354,9.296387,11.938782,,,,,,
1484020917.029655,0.720434,0.868263,0.019364,-1.835960,-3.434989,-9.671657,0.426274,-0.763208,-0.485597,0.097041,2.160302,-1.095702,-13.269485,5.829346,8.367737,,,,,,
1484020917.049644,0.780220,0.745370,-0.158143,0.622526,-3.198509,-8.051873,0.516910,-0.678244,-0.522292,0.626186,2.039099,-1.264985,-9.974396,4.997253,6.876892,,,,,,
1484020917.069664,0.834915,0.673093,-0.311582,2.287962,-1.585351,-5.708156,0.579573,-0.623408,-0.524841,1.110887,1.824351,-1.163651,-7.131683,3.641479,5.912903,,,,,,
1484020917.089653,0.895278,0.654917,-0.435405,3.580886,-0.487747,-2.737904,0.618921,-0.609093,-0.495926,1.403266,1.664681,-1.001922,-3.840485,1.837097,6.301880,,,,,,
1484020917.109673,0.948886,0.690386,-0.529149,4.177591,-0.056630,0.328796,0.626644,-0.636835,-0.449176,1.390873,1.550928,-0.722699,-3.840485,1.837097,6.301880,,,,,,
1484020917.129662,0.999246,0.772383,-0.592567,4.272148,0.766389,3.066746,0.602412,-0.697844,-0.387446,1.105322,1.486952,-0.424414,-0.950714,-5.438843,8.592529,,,,,,
1484020917.149681,1.053077,0.892320,-0.623944,3.815096,2.046725,5.447204,0.545360,-0.778530,-0.310603,0.742101,1.460613,-0.162374,-1.567108,-8.959229,11.009277,,,,,,
1484020917.169670,1.099932,1.044037,-0.614687,3.143662,3.106675,7.647586,0.448026,-0.864441,-0.228069,0.536349,1.500549,-0.079976,-3.826721,-11.127075,13.491699,,,,,,
1484020917.189690,1.089739,1.230270,-0.539396,2.683195,2.595194,9.847035,0.296078,-0.942579,-0.154540,0.566807,1.597883,-0.121507,-7.874191,-10.965881,16.934814,,,,,,
1484020917.209679,0.728496,1.441028,-0.130114,2.622946,1.719082,11.797557,0.086151,-0.991592,-0.096559,0.362839,1.862899,-0.156585,-7.874191,-10.965881,16.934814,,,,,,
1484020917.229698,-1.316082,1.404908,1.966289,3.088105,2.595834,12.828242,-0.159801,-0.986272,-0.041607,-0.455754,2.131810,-0.088001,-14.233932,-8.251282,20.286743,,,,,,
1484020917.249687,-1.567278,1.172574,2.312982,3.397507,5.366791,11.029266,-0.387778,-0.921752,-0.001364,-1.640405,1.630111,0.014655,-32.965378,9.565247,29.244568,,,,,,
1484020917.269707,-1.536077,1.000351,2.430949,2.088111,7.242167,7.367812,-0.539681,-0.841661,-0.018745,-1.808433,0.851274,-0.101311,-40.629517,21.505249,31.573364,,,,,,
1484020917.289696,-1.459389,0.877607,2.498413,1.354570,5.878286,5.963119,-0.635033,-0.769212,-0.071041,-1.239327,0.484178,-0.276889,-43.368530,28.856995,30.032471,,,,,,
1484020917.309715,-1.416350,0.763508,2.560157,1.388083,3.761735,5.997713,-0.713816,-0.691460,-0.111131,-1.179174,0.280083,-0.419325,-43.368530,28.856995,30.032471,,,,,,
1484020917.329704,-1.380381,0.654120,2.624670,1.432015,4.330445,5.611650,-0.779240,-0.608461,-0.150199,-1.652156,0.042116,-0.304543,-46.043045,34.256470,27.001465,,,,,,
1484020917.349693,-1.303121,0.563154,2.678776,1.039047,6.023476,4.473461,-0.815463,-0.533855,-0.223646,-1.919186,-0.167957,-0.214189,-49.438110,45.655396,22.889404,,,,,,
1484020917.369713,-1.198129,0.505791,2.726758,1.158672,6.574003,2.724751,-0.814745,-0.484500,-0.318513,-1.947767,-0.349805,-0.154678,-48.000076,48.721313,18.301208,,,,,,
1484020917.389702,-1.094928,0.483410,2.771514,1.444621,5.941902,1.396456,-0.787042,-0.464801,-0.405618,-1.721931,-0.476514,0.071679,-44.100616,49.083435,13.580261,,,,,,
1484020917.409721,-1.004023,0.482733,2.808634,1.380772,5.119476,0.508055,-0.747235,-0.464202,-0.475559,-1.695835,-0.461167,0.227863,-44.100616,49.083435,13.580261,,,,,,
1484020917.429710,-0.928355,0.502050,2.832996,1.514559,3.924287,-0.638279,-0.701836,-0.481223,-0.525215,-1.747383,-0.533883,0.228401,-39.088058,47.044189,9.097961,,,,,,
1484020917.449730,-0.862772,0.545947,2.837560,1.502296,3.185785,-2.214531,-0.649222,-0.519228,-0.555799,-1.708184,-0.502394,0.274885,-29.527267,39.746704,3.673767,,,,,,
1484020917.469719,-0.787550,0.609473,2.807964,1.091348,2.815270,-3.705082,-0.581039,-0.572435,-0.578543,-1.445817,-0.291334,0.244864,-25.652405,34.863647,2.203979,,,,,,
1484020917.489738,-0.703041,0.681252,2.746114,0.964013,2.043186,-4.532471,-0.502223,-0.629766,-0.592594,-1.109090,-0.059443,0.099109,-21.773010,30.880737,0.804749,,,,,,
1484020917.509727,-0.616825,0.758232,2.661626,1.205037,1.257073,-5.088771,-0.419984,-0.687639,-0.592255,-0.869170,0.142427,0.041321,-21.773010,30.880737,0.804749,,,,,,
1484020917.529747,-0.515031,0.838071,2.548890,1.260043,1.010853,-5.756231,-0.329474,-0.743354,-0.582127,-0.771906,0.335731,0.051915,-17.742661,26.974426,0.605347,,,,,,
1484020917.549736,-0.371322,0.912701,2.390158,1.112180,1.086651,-6.430679,-0.221922,-0.791159,-0.569928,-0.516253,0.487021,0.111677,-14.086273,23.293335,0.179199,,,,,,
1484020917.569756,-0.187813,0.966912,2.184594,0.832183,0.666151,-6.650949,-0.106023,-0.823136,-0.557859,-0.301433,0.644196,0.043134,-7.586197,18.259277,0.664124,,,,,,
1484020917.589745,0.014352,0.995265,1.948384,0.915668,0.060753,-6.691736,0.007811,-0.838903,-0.544225,-0.159590,0.741994,0.003911,-4.292221,17.054382,0.675110,,,,,,
1484020917.609764,0.216404,1.002075,1.698228,1.264061,-0.752551,-6.705540,0.115638,-0.842590,-0.525994,-0.056388,0.844742,-0.009300,-4.292221,17.054382,0.675110,,,,,,
1484020917.629753,0.403253,0.988017,1.444980,1.535732,-1.649155,-6.897645,0.215963,-0.834937,-0.506203,-0.030034,0.939505,0.007774,-1.143661,16.749878,0.831299,,,,,,
1484020917.649742,0.567009,0.950492,1.194148,1.747667,-2.456899,-7.305485,0.312214,-0.813701,-0.490319,0.074840,0.987346,0.063088,0.960983,17.499451,2.630798,,,,,,
1484020917.669762,0.692612,0.893372,0.961617,1.871931,-3.385721,-7.350394,0.400235,-0.779190,-0.482364,0.191424,1.096100,0.055087,1.787521,17.798279,2.705505,,,,,,
1484020917.689751,0.762560,0.823742,0.767046,1.473594,-4.107318,-6.857723,0.469368,-0.733694,-0.491312,0.367806,1.032980,-0.022024,1.792313,18.773071,2.550659,,,,,,
1484020917.709770,0.786944,0.752934,0.614907,1.102317,-4.186839,-5.928729,0.516763,-0.683782,-0.515168,0.547736,0.922872,-0.094741,1.792313,18.773071,2.550659,,,,,,
1484020917.729759,0.783086,0.693515,0.505443,0.617614,-3.567236,-4.452580,0.542509,-0.639244,-0.545023,0.625566,0.923836,-0.171789,0.674896,20.274963,2.691406,,,,,,
1484020917.749779,0.761361,0.648915,0.431158,0.421548,-3.366310,-3.233496,0.549677,-0.604322,-0.576758,0.706259,0.888318,-0.428476,-0.369553,21.401306,2.534241,,,,,,
1484020917.769768,0.732558,0.627499,0.375144,1.023016,-2.913388,-1.805356,0.541371,-0.587122,-0.601835,0.718089,0.868402,-0.534808,-2.236740,22.904968,3.123901,,,,,,
1484020917.789787,0.704391,0.639644,0.335292,1.840250,-2.412005,-0.239651,0.519550,-0.596910,-0.611364,0.620617,0.866334,-0.602671,-5.013977,22.532959,2.371582,,,,,,
1484020917.809776,0.681500,0.686569,0.308918,2.860646,-1.642281,1.218548,0.487226,-0.633887,-0.600664,0.508303,0.795783,-0.534895,-5.013977,22.532959,2.371582,,,,,,
1484020917.829796,0.669659,0.761269,0.296264,3.361686,-0.623095,2.386101,0.449376,-0.689840,-0.567610,0.361995,0.756628,-0.367952,-6.223984,20.510132,2.604919,,,,,,
1484020917.849785,0.661639,0.852982,0.302236,3.600465,0.019246,3.359521,0.404122,-0.753245,-0.518948,0.263633,0.720927,-0.302067,-7.514877,17.213806,3.744507,,,,,,
1484020917.869804,0.644139,0.962807,0.327702,4.120153,0.148273,4.350095,0.343022,-0.820798,-0.456756,0.243877,0.712949,-0.261643,-8.582687,13.616028,4.135864,,,,,,
1484020917.889791,0.605262,1.092015,0.376352,4.736836,0.134942,5.044255,0.262127,-0.887557,-0.378856,0.176518,0.720183,-0.157139,-11.092834,6.348267,6.493408,,,,,,
1484020917.909811,0.522596,1.234234,0.469636,5.230312,0.244857,5.618035,0.164835,-0.943896,-0.286165,0.083090,0.787340,-0.093977,-11.092834,6.348267,6.493408,,,,,,
1484020917.929800,0.266365,1.384525,0.744276,5.681091,0.681096,6.472139,0.048749,-0.982702,-0.178665,-0.090970,0.854543,-0.015778,-13.503113,4.030823,9.126343,,,,,,
1484020917.949789,-0.863496,1.463477,1.905107,5.320342,1.347588,6.695841,-0.081419,-0.994247,-0.069601,-0.396868,0.873428,0.069006,-17.113174,1.641907,12.882935,,,,,,
1484020917.969808,-1.657146,1.370111,2.739393,4.259137,1.694092,5.452025,-0.198598,-0.979930,0.017192,-0.544169,0.700115,0.029241,-20.485306,1.803101,17.002014,,,,,,
1484020917.989797,-1.876407,1.261336,2.992719,4.334240,1.059913,4.365270,-0.290433,-0.952498,0.091630,-0.498584,0.614501,-0.054307,-27.668686,4.523010,23.052673,,,,,,
1484020918.009817,-2.000999,1.150692,-3.135109,4.626317,1.193296,4.104087,-0.370693,-0.913046,0.170098,-0.462422,0.503104,0.028983,-27.668686,4.523010,23.052673,,,,,,
1484020918.029806,-2.038333,1.041000,-3.049222,3.765101,2.576485,4.068326,-0.451123,-0.862910,0.227759,-0.469638,0.384623,0.221643,-29.533798,6.106689,27.016968,,,,,,
1484020918.049826,-1.994082,0.945973,-3.016079,2.398960,4.141343,3.719398,-0.533328,-0.811066,0.240275,-0.535367,0.344178,0.357213,-32.597168,8.140625,29.927246,,,,,,
1484020918.069815,-1.918302,0.873161,-2.995221,1.803723,4.829224,2.765695,-0.604008,-0.766363,0.218774,-0.764019,0.232077,0.448295,-35.059265,10.694702,30.135742,,,,,,
1484020918.089834,-1.840785,0.820915,-2.975797,1.115040,4.335555,2.063128,-0.656862,-0.731770,0.181784,-0.746626,0.111012,0.502512,-36.024994,12.644775,29.224548,,,,,,
1484020918.109823,-1.763885,0.786627,-2.974774,0.032786,3.661088,1.435429,-0.693113,-0.707975,0.135520,-0.663287,0.010298,0.602395,-36.024994,12.644775,29.224548,,,,,,
1484020918.129843,-1.686429,0.764462,-2.991465,-0.629709,3.102583,1.050574,-0.716935,-0.692149,0.083273,-0.678283,-0.060659,0.603144,-36.840454,14.890869,25.837097,,,,,,
1484020918.149832,-1.615475,0.747817,-3.015283,-0.839301,2.535136,0.831390,-0.732444,-0.680040,0.032746,-0.669763,-0.056243,0.500121,-36.386475,15.936523,23.357544,,,,,,
1484020918.169851,-1.552985,0.734878,-3.037553,-0.823058,2.337062,0.522622,-0.741795,-0.670496,-0.013214,-0.708416,-0.110631,0.467834,-35.709869,16.457458,21.330994,,,,,,
1484020918.189840,-1.490908,0.730756,-3.063598,-1.104845,2.180211,-0.098992,-0.742295,-0.667433,-0.059427,-0.778304,-0.151949,0.501352,-35.333054,17.053467,19.003540,,,,,,
1484020918.209860,-1.422570,0.738807,-3.102882,-1.605198,2.054466,-0.830436,-0.731166,-0.673406,-0.109179,-0.749471,-0.152674,0.537798,-35.333054,17.053467,19.003540,,,,,,
1484020918.229849,-1.342877,0.754288,3.122708,-2.124237,2.061045,-1.345040,-0.709913,-0.684770,-0.164664,-0.626803,-0.084837,0.484336,-33.606049,17.795715,15.627441,,,,,,
1484020918.249838,-1.251285,0.772597,3.049442,-2.372351,2.022110,-1.745205,-0.679858,-0.697997,-0.224929,-0.527860,-0.006959,0.373412,-31.807053,17.863953,12.929810,,,,,,
1484020918.269857,-1.155981,0.791572,2.967408,-2.381293,1.764358,-2.046853,-0.643130,-0.711459,-0.283214,-0.429135,0.041766,0.274730,-29.932068,18.082825,10.681519,,,,,,
1484020918.289846,-1.061593,0.809905,2.878368,-2.367156,1.397427,-2.308589,-0.602084,-0.724222,-0.336152,-0.338193,0.082742,0.217301,-27.605194,18.676025,8.507019,,,,,,
1484020918.309866,-0.963891,0.827160,2.780328,-2.434738,1.296312,-2.645550,-0.556074,-0.736012,-0.386094,-0.303134,0.128376,0.194734,-27.605194,18.676025,8.507019,,,,,,
1484020918.329855,-0.855694,0.839576,2.669635,-2.648882,1.339212,-2.835519,-0.504190,-0.744360,-0.437859,-0.219992,0.171438,0.185021,-24.225815,19.866272,5.356140,,,,,,
1484020918.349874,-0.740243,0.841525,2.552419,-2.797234,1.471617,-2.774773,-0.449415,-0.745660,-0.491952,-0.120836,0.211847,0.174020,-22.496017,20.986328,3.778137,,,,,,
1484020918.369863,-0.621693,0.830458,2.435637,-2.955673,1.646339,-2.654888,-0.392859,-0.738240,-0.548328,-0.054102,0.247945,0.170444,-20.387970,22.706421,2.647644,,,,,,
1484020918.389883,-0.509375,0.808425,2.324972,-2.945184,1.502001,-2.599612,-0.336778,-0.723200,-0.602962,-0.059096,0.263529,0.124675,-18.202850,24.876099,1.215088,,,,,,
1484020918.409872,-0.409151,0.780249,2.222013,-2.824747,1.238754,-2.636303,-0.282753,-0.703457,-0.652073,-0.041236,0.274410,0.099186,-18.202850,24.876099,1.215088,,,,,,
,,,,,,,,,,,,,,,,33.759171,-118.389238,321.515594,-1.000000,-1.000000,1484020918.385712
1484020918.429891,-0.323214,0.747184,2.126834,-2.769925,0.870817,-2.590731,-0.233004,-0.679575,-0.695619,-0.013517,0.281016,0.092088,-17.514740,27.573792,0.452637,,,,,,
1484020918.449880,-0.253401,0.708113,2.041312,-2.796230,0.490445,-2.495096,-0.190428,-0.650402,-0.735333,0.024076,0.301143,0.088147,-15.233902,33.794556,-0.099976,,,,,,
1484020918.469900,-0.200336,0.666621,1.963612,-2.628772,0.036444,-2.451259,-0.156396,-0.618334,-0.770197,0.041543,0.321398,0.014383,-14.990463,37.469482,0.031921,,,,,,
1484020918.489889,-0.159416,0.626058,1.895230,-2.418880,-0.012872,-2.250551,-0.128635,-0.585955,-0.800069,0.061862,0.285509,0.017766,-15.573410,40.845825,0.389221,,,,,,
1484020918.509909,-0.125756,0.585436,1.835550,-2.356149,-0.040055,-2.116687,-0.104538,-0.552563,-0.826890,-0.017929,0.301083,0.014634,-15.573410,40.845825,0.389221,,,,,,
1484020918.529898,-0.097358,0.543974,1.779495,-2.320406,-0.102349,-2.145622,-0.083174,-0.517540,-0.851607,-0.023684,0.278923,0.019225,-16.004318,44.597473,1.044800,,,,,,
1484020918.549887,-0.073441,0.500659,1.725550,-2.407351,-0.176364,-2.139556,-0.064369,-0.480003,-0.874902,-0.028252,0.254784,0.037744,-17.171585,51.050659,1.985840,,,,,,
1484020918.569906,-0.053901,0.453898,1.675725,-2.526308,-0.149920,-2.018656,-0.048420,-0.438472,-0.897440,-0.034801,0.235408,0.060693,-17.901886,54.878357,3.090576,,,,,,
1484020918.589895,-0.037310,0.404169,1.630759,-2.623154,-0.085068,-1.895003,-0.034296,-0.393255,-0.918790,-0.039618,0.219534,0.078747,-19.156219,58.857605,4.643799,,,,,,
1484020918.609915,-0.026505,0.352242,1.588512,-2.678459,-0.393400,-1.908133,-0.024875,-0.345003,-0.938272,-0.054425,0.238665,0.050485,-19.156219,58.857605,4.643799,,,,,,
1484020918.629904,-0.024566,0.300560,1.544613,-2.564829,-0.677772,-2.114151,-0.023463,-0.296055,-0.954883,-0.101949,0.231236,0.028125,-19.363678,62.382629,4.475891,,,,,,
1484020918.649923,-0.027627,0.247368,1.497412,-2.451398,-0.651100,-2.308298,-0.026783,-0.244853,-0.969190,-0.104489,0.204844,-0.017214,-22.920441,70.717590,7.578857,,,,,,
1484020918.669912,-0.029395,0.199789,1.448003,-2.333889,-0.643622,-2.386988,-0.028806,-0.198462,-0.979685,-0.109453,0.218131,-0.075903,-25.151642,74.323303,9.132446,,,,,,
1484020918.689932,-0.036537,0.159391,1.396984,-1.931681,-0.901153,-2.494410,-0.036066,-0.158717,-0.986665,-0.106925,0.195262,-0.157454,-25.958038,77.926331,10.313232,,,,,,
1484020918.709921,-0.049951,0.129666,1.344415,-1.410845,-1.199071,-2.578558,-0.049512,-0.129303,-0.990368,-0.093936,0.181762,-0.197544,-25.958038,77.926331,10.313232,,,,,,
1484020918.729940,-0.073426,0.109800,1.289072,-1.032348,-1.679659,-2.771613,-0.072919,-0.109580,-0.991300,-0.145694,0.178351,-0.192202,-28.415405,81.307251,11.792664,,,,,,
1484020918.749929,-0.104840,0.098801,1.229503,-0.681185,-2.048973,-3.013154,-0.104138,-0.098641,-0.989659,-0.153049,0.152123,-0.234614,-30.804871,83.263062,13.279297,,,,,,
1484020918.769949,-0.146061,0.097744,1.165310,-0.315325,-2.530683,-3.257427,-0.144847,-0.097588,-0.984630,-0.118977,0.159234,-0.251058,-36.715073,85.901733,16.482239,,,,,,
1484020918.789938,-0.187916,0.105942,1.098689,-0.097166,-2.255806,-3.402308,-0.185765,-0.105744,-0.976888,-0.042324,0.165253,-0.260493,-39.041550,85.457458,17.980957,,,,,,
1484020918.809957,-0.222838,0.118042,1.030420,-0.074067,-2.167402,-3.495143,-0.219461,-0.117768,-0.968487,-0.004843,0.189225,-0.333759,-39.041550,85.457458,17.980957,,,,,,
1484020918.829946,-0.262908,0.139815,0.961484,0.427548,-2.724446,-3.651634,-0.257354,-0.139360,-0.956215,0.000930,0.229936,-0.415229,-41.143768,84.862793,19.480774,,,,,,
1484020918.849935,-0.310301,0.174692,0.894388,0.928249,-2.908984,-3.701080,-0.300698,-0.173805,-0.937749,0.052605,0.199882,-0.443111,-44.000412,83.369568,21.133972,,,,,,
1484020918.869955,-0.354996,0.221639,0.832652,1.405148,-2.836833,-3.589802,-0.339084,-0.219829,-0.914712,0.085483,0.200023,-0.481880,-48.532562,76.631104,24.235901,,,,,,
1484020918.889916,-0.399841,0.277225,0.778831,1.761675,-2.952805,-3.393122,-0.374409,-0.273687,-0.885953,0.077870,0.229818,-0.497989,-49.899399,73.110352,25.751404,,,,,,
1484020918.909935,-0.442034,0.339384,0.732519,2.020728,-2.701210,-3.246398,-0.403378,-0.332906,-0.852326,0.035687,0.237173,-0.457580,-49.899399,73.110352,25.751404,,,,,,
1484020918.929925,-0.477680,0.403886,0.692245,2.077928,-2.436568,-3.047096,-0.422731,-0.392995,-0.816611,0.068941,0.226964,-0.464975,-50.600510,67.787903,26.751953,,,,,,
1484020918.949944,-0.509848,0.468498,0.657259,2.132843,-2.285508,-2.876156,-0.435457,-0.451547,-0.778770,0.135545,0.274987,-0.432183,-50.548401,63.065002,28.200684,,,,,,
1484020918.969933,-0.539633,0.535330,0.629488,2.428779,-2.147249,-2.658493,-0.441938,-0.510125,-0.737878,0.193067,0.250847,-0.437827,-50.948578,57.892761,29.575928,,,,,,
1484020918.989953,-0.574428,0.607975,0.613583,2.919847,-2.165509,-2.391264,-0.445989,-0.571207,-0.689069,0.254705,0.283045,-0.430117,-50.019974,48.369934,32.024963,,,,,,
1484020919.009942,-0.611656,0.683018,0.612262,3.179775,-1.697582,-1.996762,-0.445409,-0.631137,-0.635041,0.250493,0.277133,-0.381301,-50.019974,48.369934,32.024963,,,,,,
1484020919.029961,-0.650481,0.753106,0.627983,3.211928,-1.272274,-1.307965,-0.441804,-0.683908,-0.580585,0.183610,0.259531,-0.463589,-48.916489,43.945129,33.248718,,,,,,
1484020919.049950,-0.691601,0.815779,0.664590,3.481372,-0.570880,-0.741620,-0.437065,-0.728260,-0.527837,0.292656,0.310154,-0.341380,-48.711670,39.747253,34.844971,,,,,,
1484020919.069970,-0.744869,0.877139,0.722996,3.709932,-0.581899,-0.456042,-0.433403,-0.768913,-0.470038,0.311241,0.320808,-0.304895,-48.274628,36.974365,36.659485,,,,,,
1484020919.089959,-0.826415,0.936284,0.804517,3.989842,-1.028729,-0.225324,-0.435998,-0.805361,-0.401622,0.326912,0.333407,-0.242818,-46.345352,32.550598,39.459534,,,,,,
1484020919.109978,-0.935650,0.989320,0.912962,4.106666,-0.918614,0.031663,-0.442144,-0.835653,-0.325872,0.312780,0.316778,-0.172632,-46.345352,32.550598,39.459534,,,,,,
1484020919.129967,-1.062659,1.028119,1.045033,3.953050,-0.641142,0.426445,-0.451181,-0.856329,-0.251270,0.307931,0.301306,-0.133969,-46.274780,31.428955,41.790283,,,,,,
1484020919.149956,-1.195870,1.047835,1.192308,3.740695,-0.086104,0.879236,-0.464753,-0.866344,-0.182900,0.301866,0.303295,-0.081077,-46.576233,30.834045,44.867798,,,,,,
1484020919.169976,-1.316954,1.050058,1.341809,3.486195,0.774505,1.124130,-0.481578,-0.867452,-0.124940,0.256114,0.280294,-0.020614,-46.872574,31.362549,46.889648,,,,,,
1484020919.189965,-1.414442,1.039098,1.479647,3.175606,1.161213,1.310094,-0.500814,-0.861947,-0.078949,0.270787,0.268701,-0.012986,-47.833237,33.918701,50.025513,,,,,,
1484020919.209984,-1.496359,1.016387,1.599419,2.795369,0.958012,1.616748,-0.524983,-0.850212,-0.039151,0.294987,0.272071,0.009564,-47.833237,33.918701,50.025513,,,,,,
1484020919.229973,-1.558138,0.981939,1.696117,2.436271,1.050063,1.979272,-0.555367,-0.831576,-0.007031,0.252266,0.250414,-0.012882,-48.723724,35.721497,50.990112,,,,,,
1484020919.249993,-1.604926,0.938115,1.781310,2.556988,1.205848,2.249530,-0.590964,-0.806445,0.020177,0.238105,0.253039,-0.110052,-50.138031,37.750305,52.102783,,,,,,
1484020919.269982,-1.644126,0.889877,1.864505,2.698134,1.446994,2.257399,-0.627816,-0.776994,0.046120,0.124642,0.222703,-0.052407,-50.648132,40.602966,53.362793,,,,,,
1484020919.290001,-1.664252,0.843406,1.938027,2.471149,2.088541,2.043447,-0.662021,-0.746912,0.062050,0.021854,0.128001,0.089576,-52.506332,43.906555,53.943481,,,,,,
1484020919.309990,-1.657137,0.802648,1.994615,1.760923,2.641058,1.703437,-0.692216,-0.719199,0.059915,0.043321,0.106665,0.216803,-52.506332,43.906555,53.943481,,,,,,
1484020919.330010,-1.617252,0.768781,2.020960,0.641893,3.112227,1.651315,-0.717984,-0.695259,0.033379,0.112820,0.135445,0.233711,-55.181259,48.935364,53.764343,,,,,,
1484020919.349999,-1.561586,0.732882,2.028730,0.239277,2.934375,1.889307,-0.743218,-0.669014,-0.006846,0.127037,0.138527,0.076426,-55.323257,50.732605,51.805115,,,,,,
1484020919.370019,-1.517846,0.693323,2.039372,0.439494,2.336190,2.031145,-0.768048,-0.639097,-0.040706,0.006070,0.142835,-0.032582,-56.067993,52.005432,49.622742,,,,,,
1484020919.390008,-1.484547,0.654702,2.058346,0.686773,2.295015,1.838281,-0.790281,-0.608923,-0.068331,-0.162417,0.062597,0.047502,-56.806931,54.329773,48.484985,,,,,,
1484020919.410027,-1.445471,0.624542,2.076630,0.439641,2.708333,1.429982,-0.804868,-0.584726,-0.101402,-0.199572,0.018961,0.114067,-56.806931,54.329773,48.484985,,,,,,
1484020919.430016,-1.388940,0.598985,2.084697,-0.025655,3.225622,1.310857,-0.812289,-0.563805,-0.149370,-0.243147,0.046944,0.141848,-58.291885,57.627808,45.616211,,,,,,
1484020919.450036,-1.325128,0.573318,2.086627,-0.282081,3.177827,1.213698,-0.814882,-0.542422,-0.204318,-0.223250,0.010150,0.155215,-57.988724,58.523315,42.987183,,,,,,
1484020919.470025,-1.269098,0.551377,2.084241,-0.437027,2.463374,0.915561,-0.813331,-0.523861,-0.253107,-0.230569,-0.032017,0.114496,-57.235062,59.493591,40.583557,,,,,,
1484020919.490014,-1.227306,0.535097,2.079843,-0.436844,1.695096,0.595118,-0.809969,-0.509925,-0.289700,-0.261960,-0.019433,0.037152,-57.307693,60.239685,37.879639,,,,,,
1484020919.510033,-1.198279,0.525587,2.074008,-0.356832,1.127169,0.198648,-0.805701,-0.501721,-0.314837,-0.273233,-0.045810,-0.017667,-57.307693,60.239685,37.879639,,,,,,
1484020919.530022,-1.176497,0.525001,2.067962,-0.204121,0.839101,-0.223727,-0.798923,-0.501214,-0.332424,-0.251431,-0.052634,-0.024357,-57.608002,60.313110,36.528809,,,,,,
1484020919.550042,-1.159082,0.532545,2.059842,-0.162480,0.577683,-0.665972,-0.789526,-0.507727,-0.344763,-0.279779,-0.041452,-0.066080,-56.414627,59.257263,33.835876,,,,,,
1484020919.570031,-1.140322,0.550968,2.047389,-0.080766,0.730777,-1.254396,-0.774287,-0.523512,-0.355549,-0.226629,-0.110048,-0.081814,-55.896500,57.980103,32.868103,,,,,,
1484020919.590050,-1.117181,0.578847,2.036064,0.394389,0.936933,-1.562950,-0.752438,-0.547059,-0.366829,-0.135029,0.020631,-0.103996,-55.084518,55.501892,31.606689,,,,,,
1484020919.610039,-1.095800,0.610887,2.038043,0.970868,1.184781,-1.259546,-0.728456,-0.573594,-0.374621,0.034059,0.070436,-0.119062,-55.084518,55.501892,31.606689,,,,,,
1484020919.630059,-1.079095,0.641244,2.049395,1.150240,1.238204,-1.091220,-0.706417,-0.598193,-0.378339,-0.030812,0.000247,0.007062,-54.274307,52.649170,30.572144,,,,,,
1484020919.650048,-1.057075,0.669130,2.058585,0.845649,1.436114,-1.022191,-0.683118,-0.620304,-0.385452,-0.021930,-0.008282,0.093704,-49.808212,46.261536,26.635742,,,,,,
1484020919.670067,-1.028954,0.691282,2.058092,0.387533,1.343958,-0.981749,-0.660073,-0.637526,-0.397322,0.026818,0.154814,0.062544,-48.246872,43.706604,24.850891,,,,,,
1484020919.690056,-0.997136,0.712019,2.049861,0.257610,1.347145,-1.060024,-0.635857,-0.653363,-0.410856,-0.007042,0.060117,0.060773,-47.285522,41.078613,23.815552,,,,,,
1484020919.710076,-0.962186,0.730360,2.040653,0.185320,1.524669,-0.863135,-0.611176,-0.667138,-0.425900,-0.048446,0.038353,0.055798,-47.285522,41.078613,23.815552,,,,,,
1484020919.730065,-0.920569,0.742764,2.029114,-0.047165,1.758190,-0.738909,-0.586295,-0.676327,-0.445915,-0.035714,0.037090,-0.022270,-45.346054,39.197327,21.577820,,,,,,
1484020919.750084,-0.880504,0.751046,2.018480,0.005007,1.502512,-0.439920,-0.563626,-0.682404,-0.465458,-0.000980,-0.032409,-0.116238,-41.990738,35.587280,18.300842,,,,,,
1484020919.770073,-0.855351,0.759764,2.017731,0.435292,1.115517,-0.346090,-0.547230,-0.688751,-0.475565,-0.079723,-0.034318,-0.165075,-40.270782,34.683228,17.257935,,,,,,
1484020919.790093,-0.839123,0.773652,2.024088,0.743595,0.975987,-0.373220,-0.532271,-0.698753,-0.477946,0.008757,0.039893,-0.093572,-39.605682,32.805664,16.218323,,,,,,
1484020919.810082,-0.827747,0.788044,2.032148,0.626289,0.801865,-0.313649,-0.519340,-0.708975,-0.477116,0.049049,0.028891,0.006169,-39.605682,32.805664,16.218323,,,,,,
1484020919.830071,-0.816606,0.796842,2.037971,0.340954,0.774717,-0.069856,-0.509426,-0.715153,-0.478583,0.055187,0.029835,0.050055,-37.888947,31.226929,15.478882,,,,,,
1484020919.850091,-0.804880,0.797861,2.044342,0.137954,0.852293,0.206913,-0.503254,-0.715864,-0.484018,0.055668,0.024306,-0.012701,-36.695099,30.098633,14.436279,,,,,,
1484020919.870080,-0.789910,0.794717,2.052687,0.072865,1.211567,0.373631,-0.497548,-0.713666,-0.493079,0.021474,0.059857,-0.019097,-35.873428,29.496460,13.840515,,,,,,
1484020919.890087,-0.762088,0.787843,2.060078,-0.169063,2.033186,0.434559,-0.487015,-0.708833,-0.510266,-0.003524,0.122484,0.053830,-34.825165,29.268127,12.643250,,,,,,
1484020919.910076,-0.708126,0.773012,2.061375,-0.764737,3.051193,0.597460,-0.465572,-0.698295,-0.543717,-0.014134,0.081809,0.037903,-34.825165,29.268127,12.643250,,,,,,
1484020919.930096,-0.645018,0.748845,2.057404,-1.124579,2.931213,0.658819,-0.440374,-0.680793,-0.585313,-0.005534,0.075538,0.062883,-33.251770,29.113281,10.996338,,,,,,
1484020919.950085,-0.591262,0.721429,2.055021,-1.212139,2.458989,0.774696,-0.418538,-0.660458,-0.623395,0.008046,0.048550,0.085950,-31.374878,29.707275,8.821228,,,,,,
1484020919.970104,-0.543036,0.688906,2.054713,-1.509313,2.351177,0.894735,-0.398892,-0.635693,-0.660893,0.050366,0.064557,0.140141,-27.841263,31.722473,5.891479,,,,,,
1484020919.990093,-0.502447,0.654968,2.053586,-1.367051,1.782510,0.727771,-0.381918,-0.609134,-0.695050,-0.104669,0.145481,-0.047809,-26.259537,33.217896,4.386353,,,,,,
1484020920.010113,-0.470887,0.634153,2.055320,-0.582329,1.656951,0.439439,-0.365470,-0.592495,-0.717900,-0.150353,0.087292,-0.082683,-26.259537,33.217896,4.386353,,,,,,
1484020920.030102,-0.432730,0.623265,2.058546,-0.475280,2.231248,0.333994,-0.340503,-0.583690,-0.737132,-0.050793,0.075877,0.034038,-25.052887,34.639709,3.481018,,,,,,
1484020920.050121,-0.385541,0.605882,2.061827,-0.914776,2.570058,0.583154,-0.309122,-0.569487,-0.761661,-0.039938,0.117430,0.050815,-23.552216,34.861084,2.582153,,,,,,
1484020920.070110,-0.338030,0.577325,2.069298,-1.439297,2.542861,0.910524,-0.277881,-0.545784,-0.790507,-0.050748,0.106377,0.078212,-19.651047,35.302246,0.560852,,,,,,
1484020920.090130,-0.296718,0.537290,2.078056,-1.984867,2.147363,0.975008,-0.251186,-0.511810,-0.821557,-0.090443,0.108856,0.078546,-17.320999,36.422058,-0.566284,,,,,,
1484020920.110119,-0.261999,0.491036,2.083230,-2.234169,1.754722,0.766189,-0.228408,-0.471540,-0.851751,-0.078568,0.063916,0.093511,-17.320999,36.422058,-0.566284,,,,,,
1484020920.130108,-0.229195,0.442727,2.085157,-2.401858,1.685424,0.653570,-0.205289,-0.428405,-0.879958,-0.025882,0.062362,0.158995,-15.807938,39.044617,-0.652161,,,,,,
1484020920.150127,-0.199448,0.389563,2.089268,-2.665803,1.401660,0.793106,-0.183284,-0.379784,-0.906736,-0.003468,0.105202,0.141203,-14.444305,41.816895,-1.113953,,,,,,
1484020920.170116,-0.181907,0.338355,2.092752,-2.258257,0.773841,0.521027,-0.170648,-0.331936,-0.927738,-0.190786,0.139538,-0.123700,-13.606079,44.440979,-0.900818,,,,,,
1484020920.190136,-0.166751,0.304836,2.093524,-1.286989,0.814469,0.223556,-0.158327,-0.300136,-0.940665,-0.135710,0.012417,-0.132715,-12.003189,49.988953,-0.626160,,,,,,
1484020920.210125,-0.149514,0.286845,2.093066,-0.728142,0.878927,0.096310,-0.142871,-0.282927,-0.948441,-0.118756,0.069518,-0.066620,-12.003189,49.988953,-0.626160,,,,,,
1484020920.230144,-0.133344,0.272732,2.094746,-0.731231,0.803384,0.243427,-0.128035,-0.269364,-0.954489,-0.066560,0.085160,-0.000680,-10.873077,51.036926,-0.854736,,,,,,
1484020920.250133,-0.120109,0.253253,2.100744,-1.076697,0.675900,0.508645,-0.115998,-0.250555,-0.961128,-0.010695,0.107656,0.077629,-10.570786,51.486633,-0.781494,,,,,,
1484020920.270153,-0.112440,0.226456,2.109863,-1.384062,0.358870,0.625032,-0.109339,-0.224525,-0.968315,0.011087,0.143318,0.090171,-9.667938,52.084778,-1.083130,,,,,,
1484020920.290142,-0.112998,0.196708,2.119438,-1.401915,-0.120070,0.632406,-0.110583,-0.195442,-0.974461,-0.034482,0.092796,0.016743,-8.602997,55.083008,-1.171570,,,,,,
1484020920.310162,-0.126165,0.170310,2.128094,-1.153950,-0.876844,0.534371,-0.124010,-0.169488,-0.977699,-0.044157,0.058404,-0.087792,-8.602997,55.083008,-1.171570,,,,,,
1484020920.330151,-0.153610,0.151795,2.134344,-0.685582,-1.550943,0.367607,-0.151247,-0.151213,-0.976862,0.005022,0.056410,-0.090887,-8.744125,56.882935,-1.405762,,,,,,
1484020920.350170,-0.183652,0.140617,2.139859,-0.448216,-1.335487,0.365426,-0.180819,-0.140154,-0.973479,-0.068449,0.035479,-0.049699,-10.237366,58.235168,-1.414734,,,,,,
1484020920.370159,-0.198997,0.129407,2.144884,-0.539465,-0.223711,0.336541,-0.196033,-0.129046,-0.972069,-0.180340,0.061800,0.046852,-11.659912,58.761719,-1.794495,,,,,,
1484020920.390179,-0.199938,0.114521,2.148459,-0.798145,0.006539,0.312479,-0.197307,-0.114270,-0.973659,-0.194386,-0.000674,-0.058537,-13.075684,60.638306,-2.106018,,,,,,
1484020920.410168,-0.202299,0.095080,2.150909,-0.980954,-0.223286,0.297941,-0.200015,-0.094936,-0.975183,-0.158887,-0.011326,-0.165885,-13.075684,60.638306,-2.106018,,,,,,
1484020920.430187,-0.210171,0.076326,2.151692,-0.828993,-0.539271,0.192712,-0.208020,-0.076252,-0.975148,0.003720,0.035404,-0.139964,-13.893250,62.065491,-1.514404,,,,,,
1484020920.450176,-0.227640,0.064456,2.152577,-0.388992,-1.038592,0.166470,-0.225210,-0.064411,-0.972179,0.074270,0.057255,-0.123051,-13.510468,63.639648,-1.671692,,,,,,
1484020920.470165,-0.249822,0.061918,2.155747,0.077461,-1.095056,0.198419,-0.246757,-0.061879,-0.967100,0.111076,0.052403,-0.016818,-15.302170,65.292480,-1.607666,,,,,,
1484020920.490185,-0.269375,0.066139,2.161732,0.390080,-0.841852,0.264214,-0.265548,-0.066091,-0.961830,0.116118,0.018575,0.075370,-16.871872,66.344849,-1.540222,,,,,,
1484020920.510174,-0.279766,0.074198,2.170569,0.549712,-0.237543,0.335576,-0.275371,-0.074130,-0.958476,0.032650,0.027651,0.070841,-16.871872,66.344849,-1.540222,,,,,,
1484020920.530193,-0.280097,0.079195,2.178631,0.206642,0.328551,0.244960,-0.275583,-0.079112,-0.958016,-0.036841,0.026851,0.098779,-18.377930,65.146912,-1.686523,,,,,,
1484020920.550182,-0.270898,0.071670,2.180245,-0.672574,0.553451,0.144531,-0.266910,-0.071609,-0.961057,-0.024014,-0.009903,0.035963,-18.083572,64.095398,-2.430786,,,,,,
1484020920.570202,-0.254256,0.052129,2.177901,-1.068220,0.975683,0.151658,-0.251184,-0.052106,-0.966536,0.090127,0.002743,0.067473,-17.631073,64.619385,-2.657715,,,,,,
1484020920.590191,-0.230617,0.032080,2.175933,-0.915991,1.314613,0.137995,-0.228460,-0.032075,-0.973025,0.117392,-0.001052,0.090456,-16.875702,65.668579,-2.436829,,,,,,
1484020920.610210,-0.200042,0.015937,2.175306,-0.748917,1.654708,0.151024,-0.198685,-0.015936,-0.979934,0.094025,-0.003335,0.065475,-16.875702,65.668579,-2.436829,,,,,,
1484020920.630199,-0.163007,0.000132,2.175909,-0.824810,1.952314,0.189519,-0.162286,-0.000132,-0.986744,0.014474,0.045268,-0.016339,-14.993073,67.240051,-2.891846,,,,,,
1484020920.650219,-0.125411,-0.020126,2.176952,-1.092207,1.763143,0.182732,-0.125057,0.020125,-0.991945,-0.049824,0.059969,-0.171919,-12.441483,67.610474,-3.414856,,,,,,
1484020920.670208,-0.097614,-0.041066,2.177104,-0.919886,1.141596,0.080552,-0.097377,0.041054,-0.994400,-0.038213,0.077873,-0.202423,-10.412628,68.357727,-3.190613,,,,,,
1484020920.690227,-0.084175,-0.049076,2.176121,-0.041588,0.415861,-0.069421,-0.083975,0.049056,-0.995260,0.045446,0.097368,-0.195765,-9.129547,69.931458,-2.746521,,,,,,
1484020920.710216,-0.080970,-0.037558,2.174103,0.905136,0.096229,-0.195792,-0.080824,0.037549,-0.996021,0.093672,0.087481,-0.054699,-9.129547,69.931458,-2.746521,,,,,,
1484020920.730236,-0.076330,-0.009731,2.169691,1.638802,0.366144,-0.429792,-0.076252,0.009730,-0.997041,0.080311,0.075322,0.116502,-8.906235,69.556702,-2.369385,,,,,,
1484020920.750225,-0.061992,0.030195,2.160945,2.084028,0.975341,-0.633924,-0.061924,-0.030190,-0.997624,0.001912,0.050515,0.146428,-7.500671,65.802612,-3.698425,,,,,,
1484020920.770214,-0.039082,0.071068,2.149196,1.845217,1.119790,-0.671723,-0.038973,-0.071008,-0.996714,-0.066022,0.009896,0.016627,-6.022156,61.598999,-4.650208,,,,,,
1484020920.790234,-0.021751,0.091434,2.140208,0.397086,0.634397,-0.336648,-0.021659,-0.091307,-0.995587,-0.076104,-0.015474,-0.079700,-4.616180,57.846191,-5.154297,,,,,,
1484020920.810223,-0.013441,0.079448,2.137654,-1.142873,0.314888,-0.018970,-0.013398,-0.079364,-0.996756,0.012666,0.022693,0.078772,-4.616180,57.846191,-5.154297,,,,,,
1484020920.830242,-0.008968,0.046715,2.138421,-1.812918,0.152883,0.078322,-0.008958,-0.046698,-0.998869,0.050446,0.010336,0.172377,-3.348114,56.493591,-5.520630,,,,,,
1484020920.850231,-0.013391,0.012163,2.139562,-1.576440,-0.672015,0.064352,-0.013390,-0.012163,-0.999836,0.058495,-0.028777,-0.014354,-2.727875,60.468872,-4.789612,,,,,,
1484020920.870251,-0.030348,-0.007110,2.138693,-0.529160,-0.296341,-0.103002,-0.030342,0.007109,-0.999514,-0.030616,0.016633,-0.453672,-3.987274,63.546326,-4.356873,,,,,,
1484020920.890214,-0.026427,-0.005874,2.136627,0.325671,0.355472,-0.056945,-0.026423,0.005874,-0.999634,-0.045293,0.054048,0.200424,-4.880814,64.822937,-4.214600,,,,,,
1484020920.910233,-0.020682,0.007381,2.138104,0.838937,0.255750,0.120769,-0.020680,-0.007381,-0.999759,-0.016719,0.004757,0.107196,-4.880814,64.822937,-4.214600,,,,,,
1484020920.930222,-0.010981,0.026961,2.142820,1.026819,0.605434,0.285186,-0.010977,-0.026957,-0.999576,-0.040461,0.022303,0.019428,-3.683487,64.295959,-4.285217,,,,,,
1484020920.950242,-0.000044,0.045707,2.150670,0.872801,0.452127,0.442503,-0.000044,-0.045691,-0.998956,-0.013888,0.025260,0.023751,-2.655930,59.942505,-5.611877,,,,,,
1484020920.970231,0.002816,0.060054,2.160514,0.621823,0.027351,0.514619,0.002811,-0.060018,-0.998193,0.009198,0.032797,0.012048,-1.089920,58.140137,-5.600525,,,,,,
1484020920.990250,-0.003997,0.068291,2.170787,0.308071,-0.533784,0.510505,-0.003988,-0.068238,-0.997661,0.005620,0.030335,0.054180,-1.474670,56.264587,-6.341736,,,,,,
1484020921.010239,-0.030468,0.069316,2.180359,-0.100244,-1.853671,0.455397,-0.030390,-0.069261,-0.997136,0.008738,0.046235,0.039662,-1.474670,56.264587,-6.341736,,,,,,
1484020921.030259,-0.097337,0.062177,2.188122,-0.453151,-4.327010,0.388029,-0.096996,-0.062137,-0.993343,0.098827,0.060612,0.222332,-1.257889,54.688293,-7.008484,,,,,,
1484020921.050248,-0.056782,0.044550,2.189446,-1.142065,-0.129876,0.057290,-0.056695,-0.044535,-0.997398,0.216073,0.064936,-0.645531,-3.576553,56.040466,-7.843750,,,,,,
1484020921.070267,0.000947,0.028543,2.186622,-0.680714,3.106944,-0.195546,0.000947,-0.028539,-0.999592,0.042922,0.064169,0.211964,-3.192963,57.690979,-7.176453,,,,,,
1484020921.090256,0.002315,0.021958,2.184593,-0.093068,-0.013407,-0.023381,0.002315,-0.021957,-0.999756,0.086598,0.061141,0.663834,-0.868271,57.612732,-7.022522,,,,,,
1484020921.110245,0.001034,0.028402,2.184681,0.507399,-0.167438,0.019846,0.001033,-0.028398,-0.999596,0.026112,0.024752,-0.135871,-0.868271,57.612732,-7.022522,,,,,,
1484020921.130265,-0.000102,0.035694,2.184630,0.824203,-0.167835,0.011167,-0.000102,-0.035687,-0.999363,0.003703,0.027066,0.027638,-0.942444,57.836914,-7.623840,,,,,,
1484020921.150254,-0.005105,0.054515,2.184729,0.999765,-0.249094,-0.000051,-0.005098,-0.054488,-0.998501,0.006212,0.034041,0.007931,-1.098404,56.637268,-7.543030,,,,,,
1484020921.170273,-0.006534,0.063992,2.184779,-0.116673,-0.008319,0.001023,-0.006520,-0.063948,-0.997932,0.000234,-0.034608,0.087928,-1.413437,53.711487,-8.353882,,,,,,
1484020921.190262,-0.006464,0.059695,2.184792,-0.136926,-0.007428,-0.005446,-0.006452,-0.059659,-0.998198,0.023802,0.034254,-0.029344,-1.040802,53.260620,-8.576050,,,,,,
1484020921.210282,-0.006156,0.054890,2.184851,0.030607,-0.025084,0.010207,-0.006147,-0.054862,-0.998475,0.015607,0.015830,-0.015822,-1.040802,53.260620,-8.576050,,,,,,
1484020921.230271,-0.005250,0.053034,2.184797,0.060406,-0.013130,-0.000530,-0.005243,-0.053009,-0.998580,0.007272,0.012345,0.016280,-1.262436,53.935974,-8.579773,,,,,,
1484020921.250291,-0.004551,0.052176,2.184768,-0.017587,0.003176,0.000097,-0.004545,-0.052153,-0.998629,0.004728,0.011992,-0.005796,-1.412354,53.936401,-8.429993,,,,,,
1484020921.270280,-0.003662,0.050535,2.184721,-0.005837,0.000098,0.000172,-0.003657,-0.050514,-0.998717,0.006694,0.010612,0.007338,-1.337326,53.936401,-8.354919,,,,,,
1484020921.290299,-0.003529,0.049660,2.184719,0.004837,-0.000868,-0.000850,-0.003525,-0.049640,-0.998761,0.003632,0.008609,0.001752,-1.112320,53.936035,-8.354553,,,,,,
1484020921.310288,-0.002671,0.048309,2.184681,-0.000524,0.001210,0.001241,-0.002668,-0.048290,-0.998830,0.004163,0.007869,-0.003123,-1.112320,53.936035,-8.354553,,,,,,
1484020921.330308,-0.002006,0.047162,2.184663,-0.001580,-0.000920,0.001267,-0.002003,-0.047144,-0.998886,0.005315,0.006327,0.018921,-1.337433,53.936096,-8.579895,,,,,,
1484020921.350297,-0.001693,0.046166,2.184668,0.001600,0.001233,0.001249,-0.001691,-0.046150,-0.998933,0.002714,0.007774,-0.002578,-1.410583,54.237122,-7.906494,,,,,,
1484020921.370316,-0.001405,0.045372,2.184686,0.000530,0.001225,0.001246,-0.001404,-0.045356,-0.998970,0.002243,0.006446,0.008446,-1.562469,53.862427,-7.904846,,,,,,
1484020921.390305,-0.001213,0.044894,2.184708,-0.000535,0.001218,0.000177,-0.001212,-0.044879,-0.998992,0.002143,0.005572,0.003615,-1.562332,53.936707,-8.355225,,,,,,
1484020921.410294,-0.000961,0.044407,2.184701,0.000541,-0.000896,0.001275,-0.000960,-0.044392,-0.999014,0.001418,0.003789,0.006643,-1.562332,53.936707,-8.355225,,,,,,
1484020921.430314,-0.000752,0.044085,2.184706,0.001602,0.000177,0.000198,-0.000751,-0.044071,-0.999028,0.002720,0.003345,0.005467,-1.336578,54.086365,-8.355652,,,,,,
1484020921.450303,-0.000457,0.043806,2.184724,0.001597,0.000178,0.001264,-0.000456,-0.043792,-0.999041,0.003462,0.005004,0.004107,-1.562180,53.937195,-8.055176,,,,,,
1484020921.470322,-0.000275,0.043498,2.184741,-0.000537,0.000160,0.001258,-0.000274,-0.043484,-0.999054,0.003250,0.002820,0.005158,-1.337250,53.936646,-8.204895,,,,,,
1484020921.490311,-0.000176,0.043160,2.184756,-0.001594,-0.000909,0.000203,-0.000176,-0.043146,-0.999069,0.002541,0.004923,0.003311,-1.336838,54.011719,-8.130249,,,,,,
1484020921.510331,0.000053,0.043008,2.184771,-0.000550,0.001222,0.002311,0.000053,-0.042995,-0.999075,0.002709,0.001583,0.004797,-1.336838,54.011719,-8.130249,,,,,,
1484020921.530320,0.000171,0.042834,2.184781,-0.000540,0.000162,0.001259,0.000171,-0.042821,-0.999083,0.000272,0.003926,0.008055,-0.961899,54.010864,-8.279724,,,,,,
1484020921.550339,0.000202,0.042696,2.184798,0.000541,-0.001951,0.001290,0.000202,-0.042683,-0.999089,0.001110,0.003285,0.002735,-1.636993,53.937866,-7.680298,,,,,,
1484020921.570328,0.000371,0.042508,2.184811,-0.000549,0.001225,0.001245,0.000371,-0.042495,-0.999097,0.003124,0.003250,0.010190,-1.337997,53.786621,-8.204163,,,,,,
1484020921.590348,0.000443,0.042327,2.184812,0.002660,0.000193,0.000201,0.000443,-0.042315,-0.999104,0.000854,0.002871,0.003712,-1.188370,53.711426,-8.203552,,,,,,
1484020921.610337,0.000543,0.042136,2.184823,0.001593,0.000184,0.000198,0.000542,-0.042124,-0.999112,0.001716,0.003595,0.006848,-1.188370,53.711426,-8.203552,,,,,,
1484020921.630356,0.000536,0.042023,2.184842,-0.000547,0.000163,0.002326,0.000535,-0.042010,-0.999117,0.001433,0.004275,0.005648,-1.788284,53.712585,-8.054443,,,,,,
1484020921.650345,0.000541,0.041943,2.184835,0.001603,-0.000876,-0.000854,0.000541,-0.041931,-0.999120,0.000344,0.002975,0.007345,-0.287582,53.860168,-8.127930,,,,,,
1484020921.670365,0.000595,0.041844,2.184853,-0.000553,0.001227,0.001245,0.000595,-0.041832,-0.999125,0.001069,0.000465,0.003702,-1.415695,53.261475,-8.351685,,,,,,
1484020921.690354,0.000650,0.041779,2.184871,0.001591,0.000185,0.000198,0.000649,-0.041767,-0.999127,0.001136,0.002384,0.006634,-1.113205,53.711792,-7.903442,,,,,,
1484020921.710374,0.000753,0.041735,2.184886,0.001592,-0.000878,0.002346,0.000752,-0.041723,-0.999129,0.001277,0.001776,0.002593,-1.113205,53.711792,-7.903442,,,,,,
1484020921.730363,0.000805,0.041724,2.184893,0.000524,0.000177,0.000195,0.000804,-0.041712,-0.999129,0.001530,0.000162,0.006560,-1.562576,53.862061,-8.129822,,,,,,
1484020921.750352,0.000856,0.041669,2.184895,0.001590,0.000186,0.000198,0.000855,-0.041657,-0.999132,0.002273,0.001527,0.005159,-0.888824,53.635742,-8.352722,,,,,,
1484020921.770371,0.000876,0.041563,2.184904,0.001590,0.000187,0.000198,0.000875,-0.041551,-0.999136,-0.000509,0.002916,0.007589,-1.412689,53.861450,-8.354675,,,,,,
1484020921.790360,0.000907,0.041494,2.184906,0.000526,0.000179,-0.000871,0.000906,-0.041482,-0.999139,0.000543,0.002343,0.003289,-1.562698,53.861694,-8.354858,,,,,,
1484020921.810380,0.000999,0.041469,2.184917,0.001586,0.000186,0.001265,0.000998,-0.041457,-0.999140,0.001642,0.001861,0.007166,-1.562698,53.861694,-8.354858,,,,,,
1484020921.830369,0.001002,0.041411,2.184921,0.001589,0.000187,0.000198,0.001001,-0.041399,-0.999142,0.000220,0.004122,0.004178,-1.864151,53.562256,-8.278809,,,,,,
1484020921.850388,0.000970,0.041366,2.184926,0.001592,0.000188,-0.000868,0.000969,-0.041355,-0.999144,-0.001580,0.001407,0.005812,-0.964523,53.485901,-8.277100,,,,,,
1484020921.870377,0.001055,0.041293,2.184920,0.001524,-0.000779,0.001234,0.001054,-0.041282,-0.999147,0.002089,0.001044,0.005739,-1.487198,53.936951,-8.130127,,,,,,
1484020921.890381,0.001103,0.041261,2.184931,0.000457,-0.000788,0.001231,0.001102,-0.041249,-0.999148,0.001232,0.001683,0.005862,-1.111862,54.011230,-8.204895,,,,,,
1484020921.910370,0.001108,0.041232,2.184934,-0.000615,0.000266,0.000148,0.001107,-0.041220,-0.999149,0.000907,0.001059,0.004017,-1.111862,54.011230,-8.204895,,,,,,
1484020921.930389,0.001084,0.041140,2.184954,-0.000618,0.000265,0.001214,0.001083,-0.041128,-0.999153,-0.000015,0.002752,0.007622,-0.963028,53.785889,-8.278564,,,,,,
1484020921.950378,0.001130,0.041052,2.184971,0.001515,0.000284,0.001220,0.001129,-0.041041,-0.999157,0.002441,0.002894,0.003658,-1.562210,53.937073,-8.130188,,,,,,
1484020921.970398,0.001157,0.040946,2.185000,0.000448,0.000274,0.001217,0.001156,-0.040935,-0.999161,0.000385,0.003123,0.003785,-1.262894,53.786865,-7.979065,,,,,,
1484020921.990387,0.001222,0.040899,2.185016,0.001522,-0.000777,0.001234,0.001221,-0.040888,-0.999163,0.001724,0.002069,0.005892,-1.561844,54.012024,-8.130615,,,,,,
1484020922.010406,0.001264,0.040881,2.185027,0.001525,-0.000776,0.000168,0.001263,-0.040870,-0.999164,0.002246,0.001395,0.003818,-1.561844,54.012024,-8.130615,,,,,,
1484020922.030395,0.001288,0.040864,2.185035,0.000442,0.001338,0.000137,0.001287,-0.040853,-0.999164,0.000529,0.000432,0.004246,-1.562897,53.787292,-7.979492,,,,,,
1484020922.050415,0.001289,0.040838,2.185043,-0.000620,0.000266,0.001214,0.001288,-0.040826,-0.999165,-0.000388,0.002588,0.006780,-1.337173,53.936890,-8.054871,,,,,,
1484020922.070404,0.001298,0.040809,2.185046,0.000450,0.000277,0.000151,0.001297,-0.040798,-0.999167,-0.000137,-0.000386,0.003882,-1.486038,54.161987,-8.056213,,,,,,
1484020922.090393,0.001313,0.040773,2.185064,0.001505,0.001347,0.001206,0.001311,-0.040762,-0.999168,0.000397,0.001211,0.005821,-1.560638,54.237244,-7.981750,,,,,,
1484020922.110412,0.001315,0.040778,2.185073,0.000442,0.001338,0.000137,0.001314,-0.040766,-0.999168,-0.001665,0.000086,0.006385,-1.560638,54.237244,-7.981750,,,,,,
1484020922.130402,0.001334,0.040746,2.185085,0.001524,-0.000775,0.000168,0.001333,-0.040735,-0.999169,0.001215,0.001108,0.004372,-1.036148,54.160950,-8.280579,,,,,,
1484020922.150421,0.001285,0.040700,2.185101,0.001512,0.000285,0.001220,0.001283,-0.040689,-0.999171,-0.001207,0.001947,0.005351,-1.561310,54.161316,-8.581360,,,,,,
1484020922.170410,0.001284,0.040714,2.185105,-0.000610,-0.000794,0.000162,0.001283,-0.040703,-0.999170,0.000106,0.000237,0.005213,-1.185379,54.311340,-8.206543,,,,,,
1484020922.190430,0.001341,0.040682,2.185110,0.000449,0.000277,0.000151,0.001340,-0.040671,-0.999172,0.002429,0.000998,0.006740,-1.787216,53.937439,-8.130554,,,,,,
1484020922.210419,0.001372,0.040644,2.185113,0.000452,0.000279,-0.000916,0.001371,-0.040633,-0.999173,0.002352,0.001906,0.006208,-1.787216,53.937439,-8.130554,,,,,,
1484020922.230438,0.001379,0.040593,2.185105,0.000456,-0.000784,0.000165,0.001378,-0.040582,-0.999175,-0.000020,0.003107,0.005325,-1.263443,53.711304,-8.353699,,,,,,
1484020922.250427,0.001355,0.040567,2.185119,0.000448,0.000278,0.000151,0.001354,-0.040555,-0.999176,0.000019,-0.000308,0.004456,-1.336685,54.086060,-8.580627,,,,,,
1484020922.270447,0.001346,0.040559,2.185128,0.001522,-0.000774,0.000168,0.001345,-0.040548,-0.999177,0.000364,0.000875,0.004670,-1.787537,53.862549,-8.055176,,,,,,
1484020922.290436,0.001353,0.040546,2.185136,0.000445,0.000277,0.001217,0.001352,-0.040535,-0.999177,0.001089,0.001930,0.009294,-1.488098,53.786499,-8.429321,,,,,,
1484020922.310455,0.001346,0.040564,2.185161,0.001511,0.000286,0.001220,0.001345,-0.040553,-0.999177,-0.000841,0.001201,0.007676,-1.488098,53.786499,-8.429321,,,,,,
1484020922.330444,0.001316,0.040556,2.185186,0.000452,-0.000785,0.001231,0.001315,-0.040545,-0.999177,-0.000430,0.000613,0.005769,-1.412949,53.786804,-8.129211,,,,,,
1484020922.350464,0.001300,0.040513,2.185200,0.001522,-0.000774,0.000168,0.001299,-0.040502,-0.999179,0.000395,0.002629,0.004855,-1.413025,53.786560,-8.279236,,,,,,
1484020922.370453,0.001317,0.040504,2.185219,0.000455,-0.000783,0.000165,0.001316,-0.040493,-0.999179,0.000271,0.001217,0.003543,-1.562073,53.937500,-7.830200,,,,,,
1484020922.390442,0.001343,0.040499,2.185242,0.001511,0.000287,0.001220,0.001342,-0.040488,-0.999179,0.001114,0.000662,0.004871,-1.564209,53.561707,-8.353394,,,,,,
1484020922.410461,0.001344,0.040464,2.185271,0.002585,-0.000765,0.001237,0.001343,-0.040453,-0.999181,0.001526,0.002504,0.005772,-1.564209,53.561707,-8.353394,,,,,,
1484020922.430450,0.001400,0.040464,2.185272,0.000447,0.000279,0.000150,0.001398,-0.040453,-0.999180,0.001516,0.001833,0.004277,-1.712173,53.937439,-8.055420,,,,,,
1484020922.450470,0.001400,0.040432,2.185275,0.000436,0.001340,0.001203,0.001399,-0.040421,-0.999182,0.000142,0.000198,0.005926,-1.262283,53.936401,-8.279785,,,,,,
1484020922.470459,0.001405,0.040436,2.185288,0.000454,-0.000782,0.000164,0.001404,-0.040425,-0.999182,-0.000870,-0.000179,0.004751,-1.563339,53.712097,-8.129089,,,,,,
1484020922.490478,0.001439,0.040448,2.185306,0.001510,0.000288,0.001220,0.001438,-0.040437,-0.999181,0.000225,0.000276,0.004751,-1.337616,53.861633,-8.204529,,,,,,
1484020922.510467,0.001388,0.040490,2.185316,0.000470,-0.002905,0.000193,0.001386,-0.040479,-0.999179,-0.001386,-0.000567,0.005634,-1.337616,53.861633,-8.204529,,,,,,
1484020922.530487,0.001375,0.040450,2.185330,-0.000620,0.000270,0.000147,0.001374,-0.040439,-0.999181,-0.000413,0.001483,0.005437,-1.338333,53.711792,-8.128723,,,,,,
1484020922.550476,0.001366,0.040442,2.185339,0.001521,-0.000773,0.000167,0.001365,-0.040431,-0.999181,0.000008,0.001018,0.007772,-0.963074,53.785767,-8.353577,,,,,,
1484020922.570496,0.001398,0.040501,2.185346,0.002580,0.000298,0.000156,0.001397,-0.040490,-0.999179,0.001075,-0.000129,0.005801,-1.786987,53.938110,-7.680542,,,,,,
1484020922.590485,0.001429,0.040507,2.185364,0.001506,0.001351,0.000139,0.001428,-0.040496,-0.999179,0.000861,0.000426,0.004275,-1.113892,53.635864,-8.503052,,,,,,
1484020922.610504,0.001453,0.040462,2.185371,0.001513,0.000290,0.000153,0.001452,-0.040451,-0.999180,0.000043,0.001709,0.004841,-1.113892,53.635864,-8.503052,,,,,,
1484020922.630493,0.001485,0.040422,2.185389,0.000451,-0.000782,0.001231,0.001484,-0.040411,-0.999182,0.000576,0.002783,0.005408,-1.338394,53.711548,-8.278748,,,,,,
1484020922.650513,0.001441,0.040414,2.185393,0.002587,-0.000762,0.000170,0.001440,-0.040403,-0.999182,-0.001364,0.001692,0.006522,-1.862137,53.937744,-7.980713,,,,,,
1484020922.670502,0.001451,0.040426,2.185406,0.001509,0.000289,0.001220,0.001450,-0.040415,-0.999182,-0.000962,0.000284,0.004690,-1.862961,53.787476,-8.129944,,,,,,
1484020922.690521,0.001463,0.040407,2.185409,-0.000621,0.000272,0.000147,0.001462,-0.040396,-0.999183,-0.000119,0.000677,0.005149,-1.338547,53.711121,-8.578735,,,,,,
1484020922.710510,0.001458,0.040466,2.185407,0.001516,0.000291,-0.000914,0.001456,-0.040455,-0.999180,0.000344,-0.001461,0.005497,-1.338547,53.711121,-8.578735,,,,,,
1484020922.730499,0.001471,0.040465,2.185436,0.001509,0.000289,0.001220,0.001470,-0.040454,-0.999180,0.000148,0.001483,0.003834,-1.261307,54.160889,-8.580872,,,,,,
1484020922.750519,0.001466,0.040476,2.185445,0.001512,0.000290,0.000153,0.001465,-0.040465,-0.999180,-0.000824,0.000396,0.005222,-1.486038,54.161987,-8.056213,,,,,,
1484020922.770508,0.001456,0.040500,2.185448,0.000438,0.001343,0.000136,0.001455,-0.040489,-0.999179,-0.001180,0.000129,0.007190,-1.262695,53.861267,-8.354431,,,,,,
1484020922.790527,0.001466,0.040495,2.185445,-0.000621,0.000272,0.000147,0.001465,-0.040484,-0.999179,0.001419,0.001010,0.001529,-1.187363,53.936096,-8.429626,,,,,,
1484020922.810516,0.001467,0.040500,2.185448,0.001509,0.000290,0.001220,0.001466,-0.040489,-0.999179,0.000426,0.000862,0.004611,-1.187363,53.936096,-8.429626,,,,,,
1484020922.830536,0.001492,0.040486,2.185456,0.000446,0.000282,0.000150,0.001491,-0.040475,-0.999179,0.000218,0.000405,0.005207,-1.861786,54.012573,-8.056030,,,,,,
1484020922.850525,0.001503,0.040450,2.185485,0.001506,0.000289,0.002286,0.001502,-0.040439,-0.999181,-0.000342,0.001514,0.004659,-0.512695,53.860107,-8.353271,,,,,,
1484020922.870544,0.001503,0.040419,2.185487,0.000389,-0.000686,-0.000947,0.001502,-0.040408,-0.999182,-0.000449,0.000262,0.006796,-1.488464,53.711548,-8.428955,,,,,,
1484020922.890535,0.001531,0.040399,2.185493,0.000382,-0.000688,0.001186,0.001530,-0.040388,-0.999183,0.001034,0.000471,0.007041,-1.111786,54.011475,-8.054871,,,,,,
1484020922.910555,0.001522,0.040417,2.185512,0.000370,0.001437,0.000091,0.001520,-0.040406,-0.999182,-0.000315,0.001283,0.005621,-1.111786,54.011475,-8.054871,,,,,,
1484020922.930544,0.001527,0.040461,2.185536,0.001445,0.000384,0.000108,0.001525,-0.040450,-0.999180,-0.000244,-0.000444,0.004445,-1.862457,53.862854,-7.905334,,,,,,
1484020922.950563,0.001510,0.040447,2.185538,0.000378,0.000375,0.000105,0.001509,-0.040436,-0.999181,-0.001021,0.000519,0.008367,-1.637177,53.937317,-8.055298,,,,,,
1484020922.970552,0.001532,0.040411,2.185545,0.001444,0.000385,0.000108,0.001531,-0.040400,-0.999182,0.000239,0.001460,0.007376,-1.412064,53.937256,-7.830017,,,,,,
1484020922.990572,0.001489,0.040326,2.185543,-0.000671,-0.001756,-0.000936,0.001488,-0.040316,-0.999186,-0.000084,0.001528,0.006785,-1.036896,54.010986,-8.279846,,,,,,
1484020923.010561,0.001502,0.040338,2.185560,0.000352,-0.000644,0.000094,0.001501,-0.040327,-0.999185,0.000986,0.000028,0.006098,-1.036896,54.010986,-8.279846,,,,,,
1484020923.030581,0.001510,0.040285,2.185561,-0.000710,-0.001716,0.001172,0.001509,-0.040274,-0.999188,0.000474,0.000967,0.006390,-1.562973,53.787048,-8.129456,,,,,,
1484020923.050570,0.001545,0.040292,2.185566,0.001419,-0.000634,0.000097,0.001543,-0.040281,-0.999187,0.000730,-0.000536,0.006847,-0.888443,53.710754,-8.353088,,,,,,
1484020923.070559,0.001563,0.040350,2.185567,0.001411,0.000427,0.000083,0.001561,-0.040339,-0.999185,0.000697,-0.001714,0.006280,-0.963074,53.785767,-8.353577,,,,,,
1484020923.090578,0.001576,0.040344,2.185579,0.000334,0.001479,0.001133,0.001574,-0.040333,-0.999185,0.000379,0.001667,0.004999,-1.186539,54.086243,-8.280396,,,,,,
1484020923.110567,0.001584,0.040336,2.185597,0.001408,0.000427,0.001150,0.001583,-0.040325,-0.999185,-0.000271,0.000927,0.003519,-1.186539,54.086243,-8.280396,,,,,,
1484020923.130587,0.001584,0.040327,2.185614,0.000349,-0.000644,0.001161,0.001583,-0.040317,-0.999186,0.000782,0.001056,0.006235,-1.188080,53.786133,-8.353943,,,,,,
1484020923.150576,0.001590,0.040281,2.185631,0.000353,-0.001706,0.002241,0.001589,-0.040270,-0.999188,0.000731,0.001101,0.006146,-1.112564,53.861389,-8.129150,,,,,,
1484020923.170595,0.001604,0.040276,2.185652,0.001384,0.000437,0.001108,0.001603,-0.040265,-0.999188,0.001037,0.001477,0.004071,-1.338074,53.786377,-8.354187,,,,,,
1484020923.190584,0.001627,0.040290,2.185642,-0.000746,0.000420,0.000036,0.001625,-0.040279,-0.999187,-0.000954,0.001094,0.006221,-1.637024,54.011597,-8.505676,,,,,,
1484020923.210604,0.001619,0.040262,2.185649,-0.000734,-0.001704,0.001131,0.001618,-0.040251,-0.999188,0.000213,0.000884,0.006024,-1.637024,54.011597,-8.505676,,,,,,
1484020923.230593,0.001599,0.040265,2.185656,0.000329,-0.000632,0.000053,0.001597,-0.040254,-0.999188,-0.000606,-0.000807,0.007092,-1.411636,54.012329,-7.755371,,,,,,
1484020923.250612,0.001610,0.040258,2.185683,0.000318,0.000428,0.001105,0.001608,-0.040247,-0.999188,0.001398,0.000849,0.005429,-1.338928,53.636108,-8.578369,,,,,,
1484020923.270601,0.001618,0.040249,2.185694,0.000325,-0.000633,0.001119,0.001617,-0.040238,-0.999189,0.001038,0.000840,0.004728,-1.637955,53.787170,-8.129578,,,,,,
1484020923.290621,0.001608,0.040247,2.185695,0.000321,0.000430,0.000039,0.001606,-0.040237,-0.999189,-0.000386,0.001159,0.004682,-1.486633,54.012451,-7.755493,,,,,,
1484020923.310610,0.001641,0.040263,2.185700,0.000317,0.000429,0.001105,0.001639,-0.040253,-0.999188,0.001870,-0.000046,0.005963,-1.486633,54.012451,-7.755493,,,,,,
1484020923.330629,0.001577,0.040257,2.185719,0.001370,0.000428,0.001060,0.001576,-0.040247,-0.999189,-0.001988,0.001505,0.003553,-1.487320,53.936584,-8.355164,,,,,,
1484020923.350618,0.001593,0.040240,2.185739,0.001370,0.000428,0.001060,0.001592,-0.040229,-0.999189,0.000270,0.000297,0.004179,-1.187408,53.935974,-8.504639,,,,,,
1484020923.370638,0.001593,0.040238,2.185755,0.001370,0.000428,0.001060,0.001591,-0.040227,-0.999189,0.000423,0.000798,0.005201,-1.561050,54.162109,-8.056335,,,,,,
1484020923.390627,0.001606,0.040258,2.185760,0.000311,-0.000642,0.001071,0.001605,-0.040247,-0.999188,-0.001513,-0.000219,0.004911,-1.638000,53.787048,-8.204590,,,,,,
1484020923.410616,0.001628,0.040236,2.185764,0.001370,0.000429,0.001060,0.001627,-0.040225,-0.999189,0.000646,0.001910,0.007688,-1.638000,53.787048,-8.204590,,,,,,
1484020923.430635,0.001597,0.040288,2.185759,0.002455,-0.001684,0.000024,0.001596,-0.040277,-0.999187,-0.000101,0.000864,0.005657,-1.413666,53.636963,-8.053467,,,,,,
1484020923.450624,0.001545,0.040283,2.185777,0.000314,-0.000641,0.000004,0.001544,-0.040272,-0.999188,-0.001010,0.000568,0.006954,-1.112686,53.861023,-8.354187,,,,,,
1484020923.470644,0.001552,0.040322,2.185782,0.001370,0.000429,0.001060,0.001551,-0.040311,-0.999186,0.000463,0.001203,0.004527,-1.412277,53.936584,-8.280029,,,,,,
1484020923.490633,0.001537,0.040277,2.185786,-0.001835,0.000372,-0.000067,0.001536,-0.040266,-0.999188,0.000997,0.002089,0.005429,-1.336685,54.012146,-7.830261,,,,,,
1484020923.510653,0.001546,0.040299,2.185796,0.001372,-0.000661,-0.000044,0.001544,-0.040288,-0.999187,0.000821,0.000463,0.006114,-1.336685,54.012146,-7.830261,,,,,,
1484020923.530642,0.001554,0.040276,2.185800,0.000298,0.000391,-0.000061,0.001553,-0.040265,-0.999188,-0.000240,0.001645,0.005810,-0.963669,53.636292,-8.052795,,,,,,
1484020923.550661,0.001552,0.040264,2.185814,-0.001834,-0.000691,0.002080,0.001551,-0.040253,-0.999188,0.000326,0.001084,0.003888,-0.812973,53.785950,-8.128357,,,,,,
1484020923.570650,0.001564,0.040276,2.185824,-0.000769,0.000382,-0.000064,0.001562,-0.040265,-0.999188,0.000879,-0.000674,0.004666,-1.338287,53.711914,-8.053711,,,,,,
1484020923.590670,0.001571,0.040237,2.185844,0.000294,0.000390,0.001005,0.001570,-0.040227,-0.999189,0.000170,0.000828,0.003675,-1.413712,53.636841,-8.128479,,,,,,
1484020923.610659,0.001571,0.040263,2.185853,0.000302,-0.000671,0.001020,0.001570,-0.040252,-0.999188,0.000566,0.000366,0.006299,-1.413712,53.636841,-8.128479,,,,,,
1484020923.630678,0.001578,0.040273,2.185856,0.001372,-0.000661,-0.000044,0.001577,-0.040262,-0.999188,0.000422,-0.000388,0.005505,-1.111420,54.086487,-8.055298,,,,,,
1484020923.650667,0.001583,0.040277,2.185870,0.001368,-0.000694,-0.000096,0.001582,-0.040266,-0.999188,0.000493,0.001585,0.003338,-1.335709,54.236694,-8.131348,,,,,,
1484020923.670687,0.001575,0.040249,2.185884,0.001364,-0.000695,0.000971,0.001574,-0.040238,-0.999189,-0.000154,0.002290,0.005094,-1.263748,53.636536,-8.203247,,,,,,
1484020923.690676,0.001553,0.040253,2.185888,0.001367,-0.000694,-0.000096,0.001552,-0.040242,-0.999189,-0.000697,0.000798,0.004438,-1.564529,53.486816,-8.278015,,,,,,
1484020923.710695,0.001536,0.040270,2.185897,0.001364,-0.000695,0.000971,0.001535,-0.040259,-0.999188,-0.000299,0.000556,0.005047,-1.564529,53.486816,-8.278015,,,,,,
1484020923.730684,0.001532,0.040245,2.185911,-0.000766,-0.000713,-0.000102,0.001531,-0.040234,-0.999189,0.000773,0.000057,0.005354,-0.962204,53.936157,-8.129333,,,,,,
1484020923.750704,0.001543,0.040253,2.185913,0.001367,-0.000694,-0.000096,0.001541,-0.040242,-0.999189,0.001159,0.001012,0.005018,-1.635300,54.312256,-8.057190,,,,,,
1484020923.770693,0.001560,0.040265,2.185932,0.001360,0.000368,-0.000110,0.001558,-0.040254,-0.999188,0.000028,0.000459,0.003369,-1.561844,54.012024,-8.130615,,,,,,
1484020923.790682,0.001567,0.040221,2.185945,0.001382,-0.002817,-0.000068,0.001565,-0.040210,-0.999190,0.000968,0.002918,0.004790,-1.338440,53.711426,-8.353760,,,,,,
1484020923.810701,0.001582,0.040218,2.185952,-0.000776,0.000329,-0.000170,0.001580,-0.040207,-0.999190,0.000571,0.000031,0.006789,-1.338440,53.711426,-8.353760,,,,,,
1484020923.830690,0.001650,0.040178,2.185952,0.001357,0.000348,-0.000164,0.001649,-0.040167,-0.999192,0.000594,0.002111,0.004303,-0.962509,53.861389,-7.978943,,,,,,
1484020923.850710,0.001652,0.040204,2.185943,0.001349,0.001410,-0.000178,0.001650,-0.040193,-0.999191,-0.000033,-0.000700,0.004745,-1.189240,53.561096,-8.427734,,,,,,
1484020923.870699,0.001680,0.040219,2.185960,0.000295,-0.000723,0.000914,0.001679,-0.040208,-0.999190,0.000717,0.000673,0.006041,-1.338028,53.786499,-8.279175,,,,,,
1484020923.890707,0.001679,0.040229,2.185968,0.000283,0.001401,-0.000181,0.001678,-0.040218,-0.999189,-0.000549,-0.000034,0.006132,-1.412247,53.936707,-8.205017,,,,,,
1484020923.910696,0.001652,0.040245,2.185976,0.001354,0.000348,0.000903,0.001651,-0.040234,-0.999189,-0.001162,0.001034,0.005079,-1.412247,53.936707,-8.205017,,,,,,
1484020923.930716,0.001650,0.040273,2.185995,0.002420,0.000357,0.000906,0.001649,-0.040262,-0.999188,-0.001664,-0.001120,0.006070,-1.261536,54.086365,-8.280518,,,,,,
1484020923.950705,0.001657,0.040269,2.185991,0.000298,-0.000722,-0.000153,0.001656,-0.040258,-0.999188,0.000999,0.001486,0.006955,-1.189651,53.485962,-8.502380,,,,,,
1484020923.970725,0.001609,0.040252,2.185993,-0.000772,-0.000777,0.000865,0.001607,-0.040241,-0.999189,-0.001531,0.000751,0.004468,-1.412643,53.861572,-8.279663,,,,,,
1484020923.990714,0.001616,0.040259,2.185999,0.000290,0.000295,-0.000213,0.001615,-0.040248,-0.999188,0.000292,0.000240,0.006665,-0.963104,53.785706,-8.428528,,,,,,
1484020924.010733,0.001681,0.040278,2.186013,0.001354,0.000304,0.000857,0.001679,-0.040267,-0.999188,0.001922,-0.000001,0.006374,-0.963104,53.785706,-8.428528,,,,,,
1484020924.030722,0.001677,0.040275,2.186010,0.000290,0.000296,-0.000213,0.001675,-0.040264,-0.999188,0.000202,-0.000492,0.006985,-1.638824,53.636841,-8.353882,,,,,,
1484020924.050742,0.001707,0.040213,2.186015,0.000279,0.001356,0.000840,0.001705,-0.040202,-0.999190,0.000706,0.001155,0.006560,-1.413773,53.636597,-8.278503,,,,,,
1484020924.070731,0.001670,0.040199,2.186023,0.001364,-0.000756,-0.000196,0.001669,-0.040188,-0.999191,-0.001486,0.000714,0.004623,-1.190323,53.336182,-8.351685,,,,,,
1484020924.090750,0.001661,0.040196,2.186035,0.001361,-0.000757,0.000871,0.001659,-0.040185,-0.999191,-0.000194,0.000909,0.004379,-1.337997,53.786621,-8.204163,,,,,,
1484020924.110739,0.001689,0.040176,2.186041,0.000286,0.000295,0.000854,0.001687,-0.040165,-0.999192,-0.000680,0.000019,0.006623,-1.337997,53.786621,-8.204163,,,,,,
1484020924.130728,0.001695,0.040215,2.186051,0.002420,0.000267,0.000813,0.001694,-0.040204,-0.999190,0.001068,-0.000171,0.004088,-1.486786,54.012024,-8.055481,,,,,,
1484020924.150748,0.001659,0.040199,2.186053,0.000298,-0.000812,-0.000245,0.001658,-0.040189,-0.999191,-0.000437,0.001645,0.006179,-0.813080,53.785583,-8.353394,,,,,,
1484020924.170737,0.001696,0.040154,2.186062,0.000287,0.000248,0.000807,0.001695,-0.040144,-0.999192,0.002486,0.001219,0.003450,-1.038315,53.711304,-8.128296,,,,,,
1484020924.190756,0.001683,0.040151,2.186063,0.000287,0.000248,0.000807,0.001682,-0.040141,-0.999193,0.000485,0.001628,0.004762,-1.413147,53.786255,-8.504211,,,,,,
1484020924.210745,0.001699,0.040172,2.186052,0.000290,0.000250,-0.000260,0.001697,-0.040161,-0.999192,0.001263,0.000778,0.008301,-1.413147,53.786255,-8.504211,,,,,,
1484020924.230765,0.001711,0.040178,2.186051,-0.000769,-0.000821,-0.000248,0.001709,-0.040167,-0.999192,0.000534,-0.000498,0.005356,-1.488068,53.786560,-8.354370,,,,,,
1484020924.250754,0.001700,0.040139,2.186068,0.000287,0.000249,0.000807,0.001698,-0.040128,-0.999193,-0.001912,0.000898,0.005220,-1.264359,53.560852,-8.652893,,,,,,
1484020924.270773,0.001677,0.040129,2.186080,0.001356,0.000259,-0.000257,0.001676,-0.040118,-0.999194,-0.000867,-0.000104,0.004580,-1.337769,53.861206,-8.504517,,,,,,
1484020924.290762,0.001678,0.040123,2.186084,0.001364,-0.000847,-0.000287,0.001676,-0.040112,-0.999194,0.000017,0.000424,0.006045,-1.035889,54.235657,-8.505920,,,,,,
1484020924.310782,0.001658,0.040102,2.186095,0.000279,0.001265,0.000749,0.001657,-0.040092,-0.999195,-0.001916,0.002326,0.005588,-1.035889,54.235657,-8.505920,,,,,,
1484020924.330771,0.001635,0.040113,2.186106,0.001369,-0.001910,0.000794,0.001634,-0.040102,-0.999194,0.000197,0.000750,0.007037,-1.037689,53.860901,-8.354065,,,,,,
1484020924.350790,0.001638,0.040083,2.186116,0.000282,0.001266,-0.000318,0.001637,-0.040073,-0.999195,0.000637,0.001926,0.006428,-0.738022,53.785583,-8.278259,,,,,,
1484020924.370779,0.001655,0.040030,2.186141,0.000291,-0.000859,0.001844,0.001654,-0.040019,-0.999198,-0.000402,0.000834,0.004386,-1.111832,54.011353,-8.129883,,,,,,
1484020924.390799,0.001634,0.040040,2.186141,0.000286,0.000204,0.000763,0.001633,-0.040030,-0.999197,-0.000992,0.000158,0.006811,-1.559372,54.462708,-7.682800,,,,,,
1484020924.410788,0.001624,0.040064,2.186152,0.000302,-0.001919,0.000791,0.001622,-0.040053,-0.999196,-0.000188,0.000655,0.005788,-1.559372,54.462708,-7.682800,,,,,,
1484020924.430808,0.001588,0.040022,2.186152,-0.000777,0.000195,-0.000307,0.001586,-0.040011,-0.999198,-0.000411,0.001956,0.004004,-1.412888,53.787048,-7.979248,,,,,,
1484020924.450797,0.001577,0.040030,2.186135,-0.000769,-0.000908,-0.000334,0.001576,-0.040019,-0.999198,-0.000233,-0.000005,0.005179,-1.561722,54.012390,-7.905640,,,,,,
1484020924.470786,0.001549,0.040030,2.186145,0.001350,0.000170,0.001791,0.001548,-0.040019,-0.999198,-0.000251,0.000224,0.005881,-1.411758,54.012024,-7.980408,,,,,,
1484020924.490805,0.001534,0.040035,2.186144,0.000290,0.000163,-0.000345,0.001533,-0.040025,-0.999198,-0.000113,0.001908,0.005881,-1.637619,53.862061,-8.204956,,,,,,
1484020924.510794,0.001533,0.040064,2.186142,0.000298,-0.000899,-0.000331,0.001532,-0.040054,-0.999196,0.000085,-0.000321,0.005910,-1.637619,53.862061,-8.204956,,,,,,
1484020924.530814,0.001534,0.040109,2.186150,0.001361,-0.000890,0.000739,0.001532,-0.040098,-0.999195,0.001031,0.000105,0.005161,-1.335663,54.236816,-8.056335,,,,,,
1484020924.550803,0.001513,0.040090,2.186149,0.000298,-0.000898,-0.000331,0.001512,-0.040079,-0.999195,-0.000490,0.000528,0.003392,-1.411194,54.161377,-8.356140,,,,,,
1484020924.570822,0.001518,0.040061,2.186142,0.000298,-0.000898,-0.000331,0.001517,-0.040050,-0.999197,0.000207,0.002147,0.004613,-1.636154,54.161865,-8.281494,,,,,,
1484020924.590811,0.001522,0.040074,2.186145,0.001353,0.000172,0.000724,0.001521,-0.040063,-0.999196,0.000936,0.001352,0.003789,-1.486465,54.086914,-8.130859,,,,,,
1484020924.610831,0.001502,0.040025,2.186155,0.000297,-0.000938,-0.000370,0.001501,-0.040014,-0.999198,-0.001074,0.002020,0.005164,-1.486465,54.086914,-8.130859,,,,,,
1484020924.630820,0.001488,0.040053,2.186147,0.001364,-0.000929,-0.000367,0.001487,-0.040042,-0.999197,0.000817,-0.000012,0.005087,-1.186905,54.011230,-8.280029,,,,,,
1484020924.650839,0.001481,0.040081,2.186146,0.000285,0.001186,-0.001465,0.001480,-0.040070,-0.999196,-0.000259,-0.001235,0.003438,-1.186874,54.011353,-8.205017,,,,,,
1484020924.670828,0.001531,0.040129,2.186141,-0.000777,0.000114,-0.000387,0.001530,-0.040118,-0.999194,0.001781,-0.001996,0.004580,-1.486832,54.011902,-8.130493,,,,,,
1484020924.690848,0.001521,0.040103,2.186144,-0.000777,0.000114,-0.000387,0.001520,-0.040092,-0.999195,0.001501,0.001121,0.004780,-0.961151,54.160828,-8.280457,,,,,,
1484020924.710837,0.001498,0.040121,2.186153,-0.000780,0.000113,0.000679,0.001497,-0.040110,-0.999194,-0.000505,-0.000677,0.003985,-0.961151,54.160828,-8.280457,,,,,,
1484020924.730856,0.001497,0.040087,2.186167,0.000290,0.000124,-0.000385,0.001495,-0.040076,-0.999196,-0.000229,0.003119,0.004918,-1.563446,53.711731,-8.354126,,,,,,
1484020924.750845,0.001471,0.040071,2.186171,0.000279,0.001184,0.000668,0.001470,-0.040060,-0.999196,-0.000829,0.000585,0.005040,-1.261536,54.086365,-8.280518,,,,,,
1484020924.770865,0.001512,0.040074,2.186166,0.000289,0.000089,-0.000419,0.001511,-0.040063,-0.999196,0.001800,-0.000128,0.004613,-1.411972,54.011353,-8.430359,,,,,,
1484020924.790854,0.001499,0.040045,2.186158,0.001355,0.000098,-0.000416,0.001498,-0.040035,-0.999197,-0.000719,0.002284,0.005209,-1.262329,53.936279,-8.354797,,,,,,
1484020924.810873,0.001509,0.040034,2.186166,0.000288,0.000089,-0.000419,0.001508,-0.040023,-0.999198,0.000369,0.000885,0.004798,-1.262329,53.936279,-8.354797,,,,,,
1484020924.830862,0.001568,0.040029,2.186139,0.001355,0.000099,-0.000416,0.001567,-0.040018,-0.999198,0.002370,-0.000387,0.002616,-1.036087,54.161194,-8.130554,,,,,,
1484020924.850851,0.001591,0.039985,2.186140,-0.000782,0.000079,0.000645,0.001589,-0.039974,-0.999199,0.000883,0.002819,0.005501,-1.185822,54.236084,-8.356201,,,,,,
1484020924.870871,0.001573,0.040017,2.186148,0.001355,0.000099,-0.000416,0.001572,-0.040006,-0.999198,0.000244,-0.000475,0.004310,-1.261902,54.011353,-8.280151,,,,,,
1484020924.890860,0.001582,0.040050,2.186134,0.001355,0.000099,-0.000416,0.001580,-0.040039,-0.999197,-0.000757,-0.000305,0.004949,-1.413773,53.636597,-8.278503,,,,,,
1484020924.910862,0.001547,0.040075,2.186137,-0.000774,-0.000982,0.000659,0.001545,-0.040065,-0.999196,-0.000615,0.000071,0.005223,-1.413773,53.636597,-8.278503,,,,,,
1484020924.930851,0.001579,0.040067,2.186137,0.000303,-0.002065,-0.000424,0.001578,-0.040056,-0.999196,0.001566,0.001268,0.005590,-1.185745,54.236328,-8.206177,,,,,,
1484020924.950870,0.001576,0.040061,2.186123,0.000296,-0.001004,-0.000438,0.001575,-0.040050,-0.999196,0.000577,-0.000492,0.006200,-1.407974,54.762146,-7.909119,,,,,,
1484020924.970859,0.001567,0.040027,2.186130,-0.000771,-0.001013,-0.000441,0.001566,-0.040017,-0.999198,-0.001138,0.001641,0.004905,-1.335815,54.236328,-8.356384,,,,,,
1484020924.990879,0.001561,0.040031,2.186137,0.001354,0.000067,-0.000449,0.001560,-0.040020,-0.999198,-0.000476,-0.000157,0.003485,-1.186539,54.086243,-8.280396,,,,,,
1484020925.010868,0.001543,0.040075,2.186145,0.000285,0.000057,0.000615,0.001542,-0.040064,-0.999196,0.000442,-0.001257,0.005757,-1.186539,54.086243,-8.280396,,,,,,
1484020925.030887,0.001569,0.040046,2.186156,0.000285,0.000057,0.000615,0.001567,-0.040035,-0.999197,0.000538,0.000301,0.003622,-1.336609,54.086304,-8.430603,,,,,,
1484020925.050876,0.001548,0.039995,2.186164,-0.000768,-0.001012,-0.001507,0.001547,-0.039984,-0.999199,-0.000341,0.000891,0.005425,-1.559921,54.387146,-8.057434,,,,,,
1484020925.070896,0.001536,0.039997,2.186166,0.001359,-0.000995,0.000632,0.001535,-0.039986,-0.999199,-0.000467,0.000131,0.006127,-1.111832,54.011353,-8.129883,,,,,,
1484020925.090885,0.001524,0.039971,2.186168,0.001357,-0.001026,0.000600,0.001523,-0.039961,-0.999200,0.000537,0.002088,0.004113,-0.811081,54.160889,-8.130188,,,,,,
1484020925.110904,0.001503,0.039990,2.186174,0.002421,-0.001018,0.001669,0.001501,-0.039980,-0.999199,0.000085,-0.000136,0.006005,-0.811081,54.160889,-8.130188,,,,,,
1484020925.130893,0.001501,0.039960,2.186170,0.000283,0.000026,0.000583,0.001500,-0.039949,-0.999201,-0.001195,0.001711,0.005838,-1.335556,54.237122,-7.831360,,,,,,
1484020925.150913,0.001485,0.039941,2.186161,0.001364,-0.001024,-0.001534,0.001483,-0.039931,-0.999201,-0.000324,0.001601,0.005992,-1.186905,54.011230,-8.280029,,,,,,
1484020925.170902,0.001461,0.039937,2.186152,-0.000781,0.000018,-0.000487,0.001460,-0.039926,-0.999202,0.000066,0.000147,0.004252,-1.111893,54.011108,-8.279907,,,,,,
1484020925.190891,0.001454,0.039959,2.186147,0.001371,-0.002085,-0.001520,0.001452,-0.039949,-0.999201,0.000577,0.000139,0.004755,-0.962616,53.861023,-8.203918,,,,,,
1484020925.210910,0.001435,0.039998,2.186148,-0.000783,0.000017,0.000580,0.001434,-0.039987,-0.999199,-0.000641,-0.000906,0.006035,-0.962616,53.861023,-8.203918,,,,,,
1484020925.230899,0.001421,0.039991,2.186150,0.000275,0.001088,0.000568,0.001420,-0.039980,-0.999199,0.000502,0.000170,0.004983,-1.410812,54.236389,-8.356506,,,,,,
1484020925.250919,0.001390,0.039966,2.186146,0.001363,-0.002112,0.000587,0.001389,-0.039955,-0.999201,-0.000702,0.002114,0.005716,-1.185715,54.236450,-8.131165,,,,,,
1484020925.270908,0.001351,0.039947,2.186153,-0.000789,-0.000009,0.001620,0.001350,-0.039936,-0.999201,-0.000556,0.001972,0.005030,-1.188187,53.785828,-8.578918,,,,,,
1484020925.290927,0.001362,0.039968,2.186142,0.001367,-0.002111,-0.000479,0.001361,-0.039958,-0.999200,0.001111,-0.000219,0.005808,-1.187622,53.861389,-8.204285,,,,,,
1484020925.310917,0.001398,0.039958,2.186146,0.001348,0.000011,0.000559,0.001397,-0.039947,-0.999201,-0.000360,0.001373,0.005548,-1.187622,53.861389,-8.204285,,,,,,
1484020925.330936,0.001426,0.039956,2.186145,0.000289,-0.001059,0.000570,0.001425,-0.039945,-0.999201,0.001505,0.000623,0.004831,-1.412949,53.786804,-8.129211,,,,,,
1484020925.350925,0.001442,0.039959,2.186145,0.001348,0.000012,0.000559,0.001440,-0.039948,-0.999201,0.000497,0.000276,0.006174,-1.411575,54.086426,-8.355774,,,,,,
1484020925.370945,0.001445,0.039917,2.186118,0.001362,-0.001048,-0.001560,0.001444,-0.039906,-0.999202,0.000585,0.000691,0.004985,-1.110657,54.236450,-8.056030,,,,,,
1484020925.390934,0.001462,0.039894,2.186118,0.000281,0.000003,0.000556,0.001461,-0.039884,-0.999203,0.000660,-0.000155,0.004361,-1.037323,53.935913,-8.354431,,,,,,
1484020925.410953,0.001486,0.039887,2.186111,0.001356,-0.001072,-0.000519,0.001485,-0.039877,-0.999204,0.001002,0.001226,0.005704,-1.037323,53.935913,-8.354431,,,,,,
1484020925.430942,0.001479,0.039897,2.186106,0.000286,-0.001083,0.000545,0.001478,-0.039886,-0.999203,0.000765,0.000259,0.002881,-1.336792,54.011841,-8.055237,,,,,,
1484020925.450962,0.001446,0.039930,2.186106,0.001364,-0.002134,-0.000505,0.001445,-0.039919,-0.999202,-0.000911,-0.000272,0.003688,-1.112686,53.861023,-8.354187,,,,,,
1484020925.470951,0.001425,0.039927,2.186102,0.000290,-0.001081,-0.000522,0.001424,-0.039917,-0.999202,-0.000218,-0.000488,0.004710,-1.411865,54.011658,-8.205383,,,,,,
1484020925.490970,0.001450,0.039951,2.186105,0.000290,-0.001081,-0.000522,0.001449,-0.039940,-0.999201,0.000917,0.000206,0.005961,-1.485703,54.236877,-8.131592,,,,,,
1484020925.510959,0.001489,0.039962,2.186099,0.001349,-0.000010,-0.000533,0.001488,-0.039951,-0.999201,0.001503,0.000583,0.006113,-1.485703,54.236877,-8.131592,,,,,,
1484020925.530979,0.001470,0.039929,2.186089,0.001349,-0.000010,-0.000533,0.001469,-0.039918,-0.999202,-0.000477,0.001435,0.006114,-1.336349,54.087097,-7.905640,,,,,,
1484020925.550968,0.001466,0.039939,2.186073,0.001345,-0.000011,0.000533,0.001465,-0.039929,-0.999201,-0.000092,0.000866,0.006373,-1.112137,53.936646,-7.979553,,,,,,
1484020925.570957,0.001438,0.039937,2.186073,0.000284,-0.001103,0.000521,0.001437,-0.039926,-0.999202,0.000211,0.000360,0.003260,-0.811432,54.086060,-8.054810,,,,,,
1484020925.590976,0.001457,0.039897,2.186071,0.001350,-0.001094,0.000524,0.001456,-0.039886,-0.999203,0.000726,0.001297,0.005719,-1.409805,54.387207,-7.832275,,,,,,
1484020925.610965,0.001446,0.039883,2.186071,-0.000791,-0.000051,0.000504,0.001445,-0.039873,-0.999204,0.001210,0.000414,0.004346,-1.409805,54.387207,-7.832275,,,,,,
1484020925.630985,0.001415,0.039903,2.186071,0.000284,-0.001103,0.000521,0.001414,-0.039893,-0.999203,-0.001093,0.000220,0.005871,-1.112091,53.936768,-7.904541,,,,,,
1484020925.650974,0.001419,0.039893,2.186086,0.001350,-0.001094,0.000524,0.001418,-0.039882,-0.999203,0.001222,0.001110,0.005109,-1.259964,54.386597,-8.132019,,,,,,
1484020925.670993,0.001385,0.039894,2.186092,0.000287,-0.001102,-0.000545,0.001384,-0.039883,-0.999203,-0.000804,0.000913,0.004773,-0.962891,53.786377,-7.978577,,,,,,
1484020925.690982,0.001400,0.039858,2.186085,0.001345,-0.000031,-0.000556,0.001399,-0.039847,-0.999205,0.000738,0.000922,0.005308,-1.412582,53.861816,-8.129639,,,,,,
1484020925.711002,0.001388,0.039881,2.186085,0.000283,-0.001103,0.000521,0.001387,-0.039870,-0.999204,-0.000624,-0.000245,0.003614,-1.412582,53.861816,-8.129639,,,,,,
1484020925.730991,0.001340,0.039861,2.186064,0.000279,-0.000058,-0.001647,0.001339,-0.039851,-0.999205,0.000355,0.000788,0.005095,-1.336838,54.011719,-8.130249,,,,,,
1484020925.751010,0.001320,0.039898,2.186058,0.000287,-0.001120,-0.001633,0.001319,-0.039887,-0.999203,0.000039,-0.001418,0.003003,-1.261826,54.011597,-8.130127,,,,,,
1484020925.771000,0.001318,0.039869,2.186056,0.001339,-0.000051,0.000489,0.001316,-0.039858,-0.999204,0.001400,0.000612,0.004759,-1.485336,54.311890,-8.131958,,,,,,
1484020925.791019,0.001295,0.039901,2.186050,0.000284,-0.001120,-0.000566,0.001293,-0.039891,-0.999203,0.000522,0.000111,0.004193,-1.411896,54.011536,-8.280396,,,,,,
1484020925.811008,0.001330,0.039908,2.186053,0.001339,-0.000050,0.000489,0.001329,-0.039898,-0.999203,0.000166,-0.000599,0.004177,-1.411896,54.011536,-8.280396,,,,,,
1484020925.831028,0.001315,0.039886,2.186052,0.000280,-0.001121,0.000500,0.001314,-0.039875,-0.999204,0.000319,0.002400,0.005139,-1.412888,53.787048,-7.979248,,,,,,
1484020925.851017,0.001296,0.039887,2.186030,0.000276,-0.000058,-0.000581,0.001295,-0.039877,-0.999204,0.000872,0.000829,0.005139,-1.187576,53.861511,-8.129272,,,,,,
1484020925.871036,0.001277,0.039886,2.186025,0.001342,-0.000049,-0.000578,0.001276,-0.039875,-0.999204,0.000524,0.002156,0.006803,-1.412689,53.861450,-8.354675,,,,,,
1484020925.891025,0.001322,0.039868,2.186021,0.001346,-0.001127,-0.000583,0.001320,-0.039857,-0.999205,0.001228,0.000535,0.005628,-1.111343,54.086731,-7.905334,,,,,,
1484020925.911000,0.001377,0.039819,2.186023,0.000272,-0.000075,-0.000600,0.001376,-0.039808,-0.999206,0.001569,0.001753,0.006073,-1.111343,54.086731,-7.905334,,,,,,
1484020925.931020,0.001351,0.039818,2.186017,0.002413,-0.001118,-0.000580,0.001350,-0.039807,-0.999206,-0.000160,0.000562,0.004044,-1.038712,53.636292,-8.127930,,,,,,
1484020925.951009,0.001376,0.039836,2.185993,0.001346,-0.001127,-0.000583,0.001375,-0.039825,-0.999206,0.001234,0.000366,0.005157,-0.962204,53.936157,-8.129333,,,,,,
1484020925.971028,0.001377,0.039807,2.185976,0.001346,-0.001126,-0.000583,0.001375,-0.039797,-0.999207,-0.000017,0.001222,0.005326,-1.560944,54.162415,-7.831360,,,,,,
1484020925.991017,0.001322,0.039766,2.185976,-0.000795,-0.000084,-0.000603,0.001321,-0.039755,-0.999209,-0.001443,0.001700,0.006457,-1.411865,54.011658,-8.205383,,,,,,
1484020926.011037,0.001373,0.039730,2.185962,0.000268,-0.000075,0.000467,0.001372,-0.039720,-0.999210,0.000978,0.001924,0.005847,-1.411865,54.011658,-8.205383,,,,,,
1484020926.031026,0.001402,0.039768,2.185954,0.000279,-0.001135,-0.000586,0.001401,-0.039758,-0.999208,0.001406,-0.000602,0.004640,-0.661575,54.085327,-8.354614,,,,,,
1484020926.051045,0.001403,0.039809,2.185952,0.001334,-0.000079,-0.000614,0.001401,-0.039799,-0.999207,-0.000608,-0.000424,0.005600,-1.037323,53.935913,-8.354431,,,,,,
1484020926.071034,0.001354,0.039787,2.185942,0.001334,-0.000079,-0.000614,0.001353,-0.039777,-0.999208,-0.002573,0.001401,0.005235,-1.486115,54.161743,-8.206238,,,,,,
1484020926.091054,0.001361,0.039819,2.185934,0.002400,-0.000070,-0.000611,0.001360,-0.039808,-0.999206,-0.000154,-0.000872,0.005035,-0.963745,53.636047,-8.202820,,,,,,
1484020926.111043,0.001360,0.039882,2.185943,0.001331,-0.000080,0.000452,0.001359,-0.039871,-0.999204,0.000533,-0.001343,0.003751,-0.963745,53.636047,-8.202820,,,,,,
1484020926.131062,0.001352,0.039892,2.185936,0.000275,-0.001150,-0.000603,0.001351,-0.039882,-0.999204,-0.000283,0.002101,0.006039,-1.036865,54.011108,-8.204834,,,,,,
1484020926.151051,0.001343,0.039877,2.185929,0.000256,0.000973,0.000435,0.001342,-0.039866,-0.999204,0.000336,0.000376,0.005659,-0.810593,54.236267,-7.905579,,,,,,
1484020926.171071,0.001347,0.039886,2.185927,0.000260,0.000974,-0.000631,0.001346,-0.039876,-0.999204,-0.000110,0.000554,0.004987,-1.487564,53.861938,-8.129700,,,,,,
1484020926.191060,0.001344,0.039819,2.185931,-0.000796,-0.000096,-0.001687,0.001343,-0.039809,-0.999206,0.000595,0.002455,0.004013,-1.260849,54.236145,-8.431274,,,,,,
1484020926.211080,0.001410,0.039777,2.185926,-0.000800,-0.001172,0.000444,0.001409,-0.039766,-0.999208,0.002330,-0.000029,0.005357,-1.260849,54.236145,-8.431274,,,,,,
1484020926.231069,0.001414,0.039800,2.185929,0.001333,-0.001153,0.000450,0.001413,-0.039790,-0.999207,0.000906,-0.000448,0.005494,-1.187653,53.861267,-8.279297,,,,,,
1484020926.251088,0.001377,0.039845,2.185944,0.000264,-0.001164,0.001514,0.001376,-0.039834,-0.999205,-0.001773,0.001153,0.006865,-1.261871,54.011475,-8.205139,,,,,,
1484020926.271077,0.001388,0.039846,2.185941,0.000267,-0.001162,0.000447,0.001387,-0.039835,-0.999205,0.000216,0.001108,0.002837,-1.411194,54.161377,-8.356140,,,,,,
1484020926.291066,0.001339,0.039816,2.185935,0.002403,-0.001143,-0.000614,0.001338,-0.039805,-0.999207,-0.001384,0.001948,0.004547,-0.738434,53.710510,-8.352905,,,,,,
1484020926.311086,0.001377,0.039820,2.185926,0.002398,-0.000080,-0.001694,0.001376,-0.039809,-0.999206,0.002057,0.000731,0.006271,-0.738434,53.710510,-8.352905,,,,,,
1484020926.331075,0.001392,0.039825,2.185918,0.001333,-0.001152,0.000450,0.001391,-0.039814,-0.999206,0.001112,0.000538,0.004623,-0.585709,54.235535,-8.130249,,,,,,
1484020926.351094,0.001370,0.039832,2.185921,0.001333,-0.001152,0.000450,0.001369,-0.039822,-0.999206,-0.000148,-0.000080,0.004104,-1.261429,54.086731,-8.055481,,,,,,
1484020926.371083,0.001372,0.039811,2.185913,0.001327,-0.000099,-0.001711,0.001371,-0.039800,-0.999207,0.001421,0.002065,0.004151,-1.259842,54.386963,-7.907043,,,,,,
1484020926.391103,0.001391,0.039792,2.185921,-0.000821,0.000942,0.000402,0.001390,-0.039781,-0.999207,0.000503,0.001344,0.006913,-0.962280,53.935913,-8.279358,,,,,,
1484020926.411092,0.001404,0.039778,2.185897,0.000260,-0.000108,-0.001714,0.001403,-0.039767,-0.999208,0.001466,-0.000943,0.004716,-0.962280,53.935913,-8.279358,,,,,,
1484020926.431111,0.001444,0.039821,2.185882,0.000254,-0.000109,0.000419,0.001443,-0.039810,-0.999206,0.000449,-0.000610,0.003585,-1.411087,54.161743,-8.131104,,,,,,
1484020926.451100,0.001451,0.039852,2.185884,0.001328,-0.001161,0.000436,0.001450,-0.039842,-0.999205,0.000121,-0.000442,0.006331,-1.336716,54.012085,-7.905273,,,,,,
1484020926.471120,0.001411,0.039814,2.185889,0.001323,-0.000099,-0.000645,0.001410,-0.039803,-0.999207,-0.001089,0.001610,0.006622,-1.189163,53.561279,-8.277832,,,,,,
1484020926.491109,0.001430,0.039828,2.185870,0.001316,0.000963,-0.000659,0.001429,-0.039818,-0.999206,0.000188,-0.000038,0.004958,-0.961945,54.010742,-8.354736,,,,,,
1484020926.511128,0.001453,0.039839,2.185861,0.000260,-0.000107,-0.001714,0.001452,-0.039829,-0.999205,0.001646,0.000659,0.002135,-0.961945,54.010742,-8.354736,,,,,,
1484020926.531117,0.001403,0.039831,2.185865,0.001330,-0.002231,0.000438,0.001402,-0.039820,-0.999206,-0.001265,0.000834,0.005645,-1.188187,53.785828,-8.578918,,,,,,
1484020926.551137,0.001431,0.039860,2.185855,0.000259,-0.001177,-0.000646,0.001430,-0.039850,-0.999205,0.001912,0.000055,0.005598,-1.186615,54.086060,-8.430359,,,,,,
1484020926.571126,0.001415,0.039866,2.185853,-0.000811,-0.001188,0.000417,0.001414,-0.039856,-0.999204,0.000006,0.001602,0.006193,-1.187698,53.861145,-8.354309,,,,,,
1484020926.591145,0.001423,0.039859,2.185850,0.000262,-0.001176,-0.001713,0.001422,-0.039849,-0.999205,0.000943,0.000146,0.004927,-0.738068,53.785461,-8.353271,,,,,,
1484020926.611134,0.001440,0.039908,2.185846,0.002378,-0.000099,0.001479,0.001439,-0.039897,-0.999203,-0.000081,-0.001042,0.004498,-0.738068,53.785461,-8.353271,,,,,,
1484020926.631123,0.001432,0.039887,2.185843,0.001333,-0.002229,-0.000629,0.001431,-0.039876,-0.999204,0.000141,-0.000102,0.003644,-0.961075,54.161072,-8.130432,,,,,,
1484020926.651143,0.001444,0.039885,2.185824,0.000256,-0.001178,0.000420,0.001443,-0.039875,-0.999204,0.001059,0.000950,0.004224,-1.189285,53.560974,-8.502808,,,,,,
1484020926.671132,0.001428,0.039906,2.185817,0.001315,-0.000107,0.000409,0.001427,-0.039895,-0.999203,-0.000191,0.000375,0.006039,-1.186951,54.011108,-8.355042,,,,,,
1484020926.691152,0.001421,0.039875,2.185814,-0.000825,-0.000132,0.000392,0.001420,-0.039865,-0.999204,-0.001069,0.000817,0.004560,-1.035660,54.236328,-8.055908,,,,,,
1484020926.711141,0.001414,0.039893,2.185796,0.000249,-0.001184,0.000409,0.001413,-0.039882,-0.999203,-0.000437,-0.000111,0.006497,-1.035660,54.236328,-8.055908,,,,,,
1484020926.731160,0.001410,0.039908,2.185782,0.000242,-0.000123,0.000395,0.001409,-0.039897,-0.999203,0.000163,0.001018,0.004681,-1.187546,53.861633,-8.054260,,,,,,
1484020926.751149,0.001419,0.039931,2.185784,0.000245,-0.000121,-0.000672,0.001418,-0.039920,-0.999202,0.001130,-0.001813,0.005824,-1.486862,54.011780,-8.205505,,,,,,
1484020926.771169,0.001408,0.039944,2.185776,0.000256,-0.001182,-0.001724,0.001407,-0.039933,-0.999201,0.000638,0.001329,0.003764,-1.336975,54.011292,-8.430237,,,,,,
1484020926.791158,0.001400,0.039949,2.185773,0.001316,-0.001174,0.000412,0.001399,-0.039938,-0.999201,-0.000529,0.001242,0.004389,-1.635696,54.237122,-8.131836,,,,,,
1484020926.811177,0.001399,0.039919,2.185765,0.000252,-0.001182,-0.000658,0.001397,-0.039908,-0.999202,0.000373,0.000770,0.004345,-1.635696,54.237122,-8.131836,,,,,,
1484020926.831166,0.001420,0.039894,2.185766,0.001327,-0.002234,-0.000641,0.001419,-0.039883,-0.999203,0.001861,0.000928,0.005078,-1.412506,53.862061,-7.979675,,,,,,
1484020926.851186,0.001396,0.039882,2.185774,-0.001902,-0.000147,0.001446,0.001395,-0.039871,-0.999204,-0.000800,0.000946,0.005017,-1.411423,54.086914,-8.055725,,,,,,
1484020926.871175,0.001359,0.039895,2.185777,-0.000832,-0.000136,0.000382,0.001358,-0.039884,-0.999203,-0.001190,0.000334,0.005276,-1.485809,54.236511,-8.356628,,,,,,
1484020926.891194,0.001355,0.039878,2.185790,-0.000821,-0.001197,-0.000670,0.001354,-0.039867,-0.999204,0.000095,0.000362,0.005948,-1.636826,54.012146,-8.130676,,,,,,
1484020926.911186,0.001329,0.039921,2.185783,0.001305,-0.000117,-0.000679,0.001328,-0.039911,-0.999202,-0.001221,-0.000876,0.004589,-1.636826,54.012146,-8.130676,,,,,,
1484020926.931206,0.001307,0.039913,2.185786,0.000235,-0.000127,0.000385,0.001306,-0.039902,-0.999203,-0.001122,0.000519,0.006115,-1.261047,54.161682,-8.055847,,,,,,
1484020926.951195,0.001286,0.039904,2.185788,-0.000821,-0.001197,-0.000671,0.001285,-0.039893,-0.999203,0.000653,0.000296,0.005734,-1.336761,54.011963,-7.980286,,,,,,
1484020926.971214,0.001299,0.039872,2.185790,0.001304,-0.000116,-0.000679,0.001298,-0.039861,-0.999204,0.000747,0.001913,0.005155,-1.484833,54.387268,-7.907349,,,,,,
1484020926.991203,0.001311,0.039850,2.185781,-0.000821,-0.001196,-0.000671,0.001310,-0.039840,-0.999205,0.000232,0.000945,0.005507,-1.336838,54.011719,-8.130249,,,,,,
1484020927.011192,0.001344,0.039851,2.185765,0.001294,-0.000121,0.000379,0.001343,-0.039840,-0.999205,0.001007,-0.000138,0.003325,-1.336838,54.011719,-8.130249,,,,,,
1484020927.031212,0.001377,0.039826,2.185745,0.000239,-0.001190,-0.000676,0.001375,-0.039815,-0.999206,0.000623,0.001516,0.006836,-1.338699,53.636780,-8.128357,,,,,,
1484020927.051201,0.001345,0.039825,2.185737,0.000239,-0.001190,-0.000676,0.001344,-0.039814,-0.999206,0.000380,-0.000133,0.003677,-1.413071,53.786438,-8.354248,,,,,,
1484020927.071220,0.001381,0.039825,2.185727,0.000231,-0.000128,-0.000690,0.001380,-0.039814,-0.999206,0.001107,-0.000179,0.003936,-1.636948,54.011780,-8.355713,,,,,,
1484020927.091209,0.001341,0.039810,2.185720,0.000235,-0.001191,0.000390,0.001340,-0.039799,-0.999207,-0.000150,0.001499,0.006333,-1.337143,53.937012,-7.979919,,,,,,
1484020927.111229,0.001391,0.039834,2.185725,0.003438,-0.001161,-0.000668,0.001390,-0.039824,-0.999206,0.001967,0.000807,0.005416,-1.337143,53.937012,-7.979919,,,,,,
1484020927.131218,0.001418,0.039815,2.185700,0.000231,-0.000128,-0.000691,0.001417,-0.039804,-0.999206,0.001543,0.001200,0.002090,-1.187180,53.936646,-8.054626,,,,,,
1484020927.151238,0.001424,0.039829,2.185686,0.000231,-0.000128,-0.000691,0.001423,-0.039818,-0.999206,-0.001011,0.000237,0.005264,-1.261978,54.011169,-8.430115,,,,,,
1484020927.171227,0.001417,0.039818,2.185683,-0.000846,-0.000141,0.000366,0.001416,-0.039807,-0.999206,0.000721,0.001050,0.004272,-1.262955,53.786621,-8.129028,,,,,,
1484020927.191246,0.001456,0.039762,2.185672,0.000231,-0.001191,-0.000684,0.001454,-0.039751,-0.999209,0.001765,0.001650,0.005510,-1.038742,53.636169,-8.202942,,,,,,
1484020927.211235,0.001410,0.039737,2.185659,-0.000842,-0.001203,0.001446,0.001409,-0.039726,-0.999210,-0.000737,-0.000771,0.004138,-1.038742,53.636169,-8.202942,,,,,,
1484020927.231255,0.001419,0.039764,2.185650,0.001294,-0.001183,0.000386,0.001418,-0.039754,-0.999209,0.000993,-0.000713,0.005449,-1.113068,53.786011,-8.353821,,,,,,
1484020927.251244,0.001394,0.039801,2.185642,-0.000846,-0.000140,0.000366,0.001392,-0.039791,-0.999207,-0.001591,0.000103,0.006058,-1.038071,53.785889,-8.353699,,,,,,
1484020927.271263,0.001392,0.039800,2.185633,-0.000851,0.000923,-0.000715,0.001391,-0.039790,-0.999207,0.000409,0.000209,0.005723,-0.961838,54.011108,-8.129700,,,,,,
1484020927.291252,0.001377,0.039779,2.185625,0.000231,-0.001191,-0.000684,0.001375,-0.039768,-0.999208,0.001158,0.002049,0.004747,-1.263855,53.636230,-8.428223,,,,,,
1484020927.311272,0.001368,0.039769,2.185616,0.000223,-0.000129,-0.000698,0.001367,-0.039758,-0.999208,0.000251,0.001276,0.004579,-1.263855,53.636230,-8.428223,,,,,,
1484020927.331261,0.001386,0.039779,2.185595,-0.000843,-0.001201,-0.000693,0.001384,-0.039768,-0.999208,0.000218,0.000263,0.005510,-1.187576,53.861511,-8.129272,,,,,,
1484020927.351280,0.001409,0.039799,2.185580,0.000223,-0.001192,-0.000690,0.001408,-0.039788,-0.999207,0.000805,0.000726,0.003754,-1.259964,54.386597,-8.132019,,,,,,
1484020927.371269,0.001390,0.039802,2.185566,0.001290,-0.001182,-0.000688,0.001389,-0.039791,-0.999207,0.000015,0.000408,0.006333,-1.038361,53.711182,-8.203308,,,,,,
1484020927.391258,0.001372,0.039780,2.185573,0.000217,-0.001194,0.001443,0.001371,-0.039770,-0.999208,0.000322,0.001241,0.006486,-1.037689,53.860901,-8.354065,,,,,,
1484020927.411278,0.001346,0.039788,2.185554,0.001298,-0.002244,-0.000673,0.001344,-0.039777,-0.999208,0.000456,0.001081,0.004152,-1.037689,53.860901,-8.354065,,,,,,
1484020927.431267,0.001335,0.039794,2.185540,0.000212,-0.000131,0.000362,0.001334,-0.039784,-0.999207,0.001550,0.001606,0.007234,-1.112244,53.936279,-8.204529,,,,,,
1484020927.451286,0.001335,0.039795,2.185531,0.001287,-0.001183,0.000379,0.001334,-0.039784,-0.999207,0.000207,0.000279,0.006120,-1.111496,54.086243,-8.205322,,,,,,
1484020927.471275,0.001331,0.039801,2.185522,0.000223,-0.001191,-0.000691,0.001330,-0.039791,-0.999207,0.000836,-0.000325,0.003663,-0.736526,54.085571,-8.279724,,,,,,
1484020927.491295,0.001338,0.039793,2.185518,0.000212,-0.001192,0.000370,0.001337,-0.039782,-0.999207,0.000540,0.000079,0.005448,-1.186981,54.011047,-8.429993,,,,,,
1484020927.511284,0.001334,0.039787,2.185510,-0.000859,-0.000139,-0.000713,0.001333,-0.039777,-0.999208,0.001093,0.000562,0.005601,-1.186981,54.011047,-8.429993,,,,,,
1484020927.531303,0.001333,0.039776,2.185495,0.002345,-0.001173,0.000376,0.001332,-0.039765,-0.999208,0.000438,0.001008,0.003893,-1.410690,54.236755,-8.131470,,,,,,
1484020927.551292,0.001348,0.039741,2.185495,0.000212,-0.001192,0.000370,0.001347,-0.039730,-0.999210,0.000362,0.001583,0.005084,-1.188782,53.636292,-8.278198,,,,,,
1484020927.571312,0.001360,0.039781,2.185491,0.002338,-0.000111,0.000362,0.001359,-0.039771,-0.999208,0.000152,-0.000360,0.004762,-0.963104,53.785706,-8.428528,,,,,,
1484020927.591301,0.001344,0.039799,2.185493,0.000204,-0.000130,0.000356,0.001343,-0.039789,-0.999207,-0.000397,-0.000174,0.004105,-1.336838,54.011719,-8.130249,,,,,,
1484020927.611321,0.001366,0.039759,2.185489,0.001271,-0.000120,0.000359,0.001365,-0.039748,-0.999209,0.001061,0.001311,0.005404,-1.336838,54.011719,-8.130249,,,,,,
1484020927.631310,0.001361,0.039820,2.185480,0.001274,-0.000119,-0.000708,0.001360,-0.039809,-0.999206,0.000913,-0.000565,0.005737,-1.336044,54.161804,-8.055969,,,,,,
1484020927.651329,0.001366,0.039816,2.185481,-0.000870,-0.000138,0.000349,0.001365,-0.039805,-0.999207,0.001015,0.001338,0.006714,-1.411575,54.086426,-8.355774,,,,,,
1484020927.671318,0.001393,0.039817,2.185476,0.001270,-0.000117,-0.001779,0.001392,-0.039806,-0.999206,0.001003,0.000011,0.007095,-0.662689,53.860352,-8.353516,,,,,,
1484020927.691338,0.001390,0.039833,2.185478,0.000216,-0.002251,-0.000687,0.001389,-0.039823,-0.999206,0.001220,-0.000827,0.005538,-0.511871,54.010315,-8.204041,,,,,,
1484020927.711327,0.001371,0.039817,2.185479,0.002322,0.000952,0.000343,0.001370,-0.039806,-0.999206,-0.000424,0.000454,0.007095,-0.511871,54.010315,-8.204041,,,,,,
1484020927.731346,0.001316,0.039861,2.185488,0.002346,-0.002233,0.000386,0.001315,-0.039850,-0.999205,-0.000491,-0.000036,0.005263,-0.885666,54.236145,-8.055664,,,,,,
1484020927.751335,0.001289,0.039867,2.185479,0.001275,-0.001180,-0.000698,0.001288,-0.039856,-0.999205,0.000345,0.000916,0.007093,-0.737320,53.935486,-8.354004,,,,,,
1484020927.771324,0.001302,0.039843,2.185470,0.000200,-0.000127,-0.000715,0.001301,-0.039833,-0.999206,0.000194,-0.000588,0.005141,-0.662689,53.860352,-8.353516,,,,,,
1484020927.791344,0.001318,0.039820,2.185470,-0.000870,-0.000137,0.000349,0.001317,-0.039809,-0.999206,0.000499,0.000640,0.004364,-0.961533,54.085876,-8.280090,,,,,,
1484020927.811333,0.001318,0.039790,2.185472,0.000200,-0.001187,-0.000705,0.001317,-0.039780,-0.999208,0.001170,0.002686,0.005021,-0.961533,54.085876,-8.280090,,,,,,
1484020927.831352,0.001322,0.039799,2.185468,0.002330,-0.001169,0.000368,0.001321,-0.039789,-0.999207,0.000205,0.001718,0.004273,-0.736145,54.160522,-8.280090,,,,,,
1484020927.851341,0.001322,0.039800,2.185475,-0.000878,-0.000135,0.000345,0.001321,-0.039789,-0.999207,-0.000375,-0.000494,0.005677,-1.189209,53.561157,-8.352783,,,,,,
1484020927.871361,0.001310,0.039766,2.185481,0.000197,-0.001187,0.000362,0.001309,-0.039756,-0.999209,0.000858,0.001776,0.007326,-1.111893,54.011108,-8.279907,,,,,,
1484020927.891350,0.001330,0.039735,2.185476,-0.000875,-0.000134,-0.000722,0.001329,-0.039725,-0.999210,0.001951,0.000693,0.006214,-1.261093,54.161560,-8.130859,,,,,,
1484020927.911338,0.001291,0.039729,2.185463,0.001258,-0.000115,-0.000716,0.001290,-0.039719,-0.999210,-0.001138,0.000458,0.004780,-1.261093,54.161560,-8.130859,,,,,,
1484020927.931327,0.001262,0.039676,2.185460,-0.003008,-0.000153,-0.000728,0.001261,-0.039666,-0.999212,0.000677,0.000680,0.005194,-1.413666,53.636963,-8.053467,,,,,,
1484020927.951347,0.001260,0.039642,2.185456,0.000188,-0.000126,0.000347,0.001259,-0.039632,-0.999214,-0.000404,0.001348,0.006080,-1.411194,54.161377,-8.356140,,,,,,
1484020927.971336,0.001254,0.039704,2.185468,0.000188,-0.001185,0.000358,0.001253,-0.039693,-0.999211,-0.000413,-0.000819,0.004796,-1.486893,54.011658,-8.280518,,,,,,
1484020927.991355,0.001276,0.039692,2.185448,0.000187,-0.000121,-0.001789,0.001275,-0.039681,-0.999212,0.001746,-0.000495,0.004979,-1.636826,54.012146,-8.130676,,,,,,
1484020928.011344,0.001325,0.039755,2.185447,0.000184,-0.000121,-0.000722,0.001324,-0.039745,-0.999209,0.002079,-0.001485,0.004931,-1.636826,54.012146,-8.130676,,,,,,
1484020928.031364,0.001300,0.039753,2.185433,-0.000879,-0.000130,-0.001792,0.001299,-0.039743,-0.999209,-0.000674,0.001702,0.006869,-1.113358,53.711304,-8.203430,,,,,,
1484020928.051353,0.001330,0.039722,2.185433,-0.001952,-0.000141,0.000338,0.001329,-0.039712,-0.999210,0.000608,0.001245,0.006748,-1.336899,54.011475,-8.280273,,,,,,
1484020928.071373,0.001311,0.039702,2.185435,-0.000878,-0.001193,0.000355,0.001310,-0.039692,-0.999211,0.000216,0.001103,0.006734,-1.111465,54.086365,-8.130310,,,,,,
1484020928.091362,0.001299,0.039663,2.185437,0.000184,-0.000121,-0.000722,0.001298,-0.039653,-0.999213,-0.000245,0.002467,0.006064,-1.187576,53.861511,-8.129272,,,,,,
1484020928.111381,0.001353,0.039671,2.185425,-0.000883,-0.000130,-0.000725,0.001352,-0.039661,-0.999212,0.001150,0.000248,0.004660,-1.187576,53.861511,-8.129272,,,,,,
1484020928.131370,0.001360,0.039676,2.185410,0.000181,-0.001180,0.000356,0.001359,-0.039665,-0.999212,0.000350,-0.000236,0.003439,-1.187653,53.861267,-8.279297,,,,,,
1484020928.151359,0.001354,0.039677,2.185395,0.001251,-0.001169,-0.000708,0.001353,-0.039667,-0.999212,0.000447,0.000345,0.005377,-0.962051,54.010437,-8.579712,,,,,,
1484020928.171379,0.001363,0.039640,2.185385,0.000188,-0.002241,0.000370,0.001362,-0.039630,-0.999214,0.000454,0.001376,0.004249,-1.260666,54.236694,-8.056274,,,,,,
1484020928.191368,0.001356,0.039629,2.185386,0.001239,-0.000108,0.000344,0.001355,-0.039619,-0.999214,0.000156,0.000465,0.005028,-0.886948,54.010681,-8.354614,,,,,,
1484020928.211387,0.001374,0.039604,2.185376,0.000184,-0.001178,-0.000711,0.001373,-0.039594,-0.999215,0.000809,0.000760,0.005746,-0.886948,54.010681,-8.354614,,,,,,
1484020928.231376,0.001364,0.039587,2.185377,-0.000886,-0.001188,0.000353,0.001363,-0.039577,-0.999216,0.000575,0.000301,0.004907,-1.114197,53.561035,-8.352722,,,,,,
1484020928.251396,0.001376,0.039571,2.185373,0.002313,-0.001160,0.000361,0.001375,-0.039561,-0.999216,-0.000017,0.001948,0.005167,-1.113068,53.786011,-8.353821,,,,,,
1484020928.271385,0.001414,0.039570,2.185351,0.001239,-0.000107,0.000344,0.001413,-0.039560,-0.999216,0.001562,0.000833,0.004816,-1.337692,53.861389,-8.354553,,,,,,
1484020928.291404,0.001369,0.039610,2.185343,0.000173,-0.001174,0.000354,0.001368,-0.039599,-0.999215,-0.000162,-0.000241,0.006020,-1.262695,53.861267,-8.354431,,,,,,
1484020928.311393,0.001382,0.039575,2.185333,0.001246,-0.001163,-0.001777,0.001381,-0.039564,-0.999216,0.000343,0.001295,0.005045,-1.262695,53.861267,-8.354431,,,,,,
1484020928.331413,0.001410,0.039549,2.185323,0.000168,-0.000111,-0.000727,0.001409,-0.039538,-0.999217,0.000514,0.000720,0.005916,-1.038071,53.785889,-8.353699,,,,,,
1484020928.351402,0.001418,0.039527,2.185313,0.000176,-0.001173,-0.000713,0.001417,-0.039516,-0.999218,0.001253,0.001613,0.003750,-1.112610,53.861267,-8.204163,,,,,,
1484020928.371421,0.001469,0.039519,2.185301,0.000165,-0.000112,0.000339,0.001468,-0.039509,-0.999218,0.000943,-0.000057,0.006619,-1.187210,53.936523,-8.129639,,,,,,
1484020928.391410,0.001467,0.039516,2.185308,-0.000891,-0.001181,-0.000716,0.001466,-0.039506,-0.999218,0.000212,0.001817,0.003994,-1.114594,53.485962,-8.427307,,,,,,
1484020928.411430,0.001456,0.039554,2.185299,0.001227,0.000960,-0.000739,0.001455,-0.039544,-0.999217,-0.001012,0.000817,0.004786,-1.114594,53.485962,-8.427307,,,,,,
1484020928.431419,0.001442,0.039541,2.185290,0.001238,-0.000100,-0.001791,0.001441,-0.039531,-0.999217,-0.000327,0.000865,0.004634,-1.337692,53.861389,-8.354553,,,,,,
1484020928.451438,0.001441,0.039562,2.185281,0.000157,-0.000107,0.000338,0.001440,-0.039552,-0.999216,0.001322,-0.002074,0.004694,-1.036041,54.161316,-8.055542,,,,,,
1484020928.471427,0.001416,0.039526,2.185277,-0.000910,-0.000116,0.000335,0.001415,-0.039516,-0.999218,-0.001857,0.001918,0.007915,-1.338074,53.786377,-8.354187,,,,,,
1484020928.491447,0.001412,0.039508,2.185273,0.001234,-0.001158,-0.000712,0.001411,-0.039498,-0.999219,0.000817,0.001274,0.007306,-1.037216,53.936279,-8.129395,,,,,,
1484020928.511436,0.001425,0.039498,2.185263,0.000167,-0.001167,-0.000715,0.001424,-0.039488,-0.999219,0.000682,0.001829,0.004621,-1.037216,53.936279,-8.129395,,,,,,
1484020928.531425,0.001435,0.039525,2.185253,0.000168,-0.001167,-0.000715,0.001434,-0.039515,-0.999218,0.001648,0.000101,0.004192,-1.113174,53.785706,-8.578796,,,,,,
1484020928.551445,0.001430,0.039518,2.185249,-0.000918,0.000946,0.000320,0.001429,-0.039508,-0.999218,-0.000223,0.001071,0.006863,-1.261871,54.011475,-8.205139,,,,,,
1484020928.571434,0.001420,0.039531,2.185240,0.001234,-0.001157,-0.000712,0.001419,-0.039521,-0.999218,0.000488,-0.000335,0.004131,-1.336899,54.011475,-8.280273,,,,,,
1484020928.591453,0.001393,0.039535,2.185221,0.001242,-0.002219,-0.000698,0.001392,-0.039524,-0.999218,-0.000553,0.000798,0.004573,-0.737640,53.860596,-8.278625,,,,,,
1484020928.611442,0.001395,0.039585,2.185216,0.000160,-0.001161,-0.000716,0.001394,-0.039575,-0.999216,0.000483,-0.002036,0.005029,-0.737640,53.860596,-8.278625,,,,,,
1484020928.631462,0.001357,0.039610,2.185192,0.000155,-0.000098,-0.001797,0.001356,-0.039599,-0.999215,0.000215,-0.000562,0.008034,-1.036896,54.010986,-8.279846,,,,,,
1484020928.651451,0.001349,0.039635,2.185177,0.000160,-0.001161,-0.000716,0.001348,-0.039624,-0.999214,0.000132,-0.000613,0.005165,-1.413071,53.786438,-8.354248,,,,,,
1484020928.671470,0.001322,0.039646,2.185185,0.000146,-0.000101,0.001403,0.001321,-0.039636,-0.999213,-0.000482,0.000207,0.003242,-1.337646,53.861511,-8.279541,,,,,,
1484020928.691459,0.001356,0.039677,2.185185,0.000149,-0.000100,0.000336,0.001355,-0.039666,-0.999212,0.002475,-0.000266,0.002172,-1.186539,54.086243,-8.280396,,,,,,
