timestamp(unix),attitude_roll(radians),attitude_pitch(radians),attitude_yaw(radians),rotation_rate_x(radians/s),rotation_rate_y(radians/s),rotation_rate_z(radians/s),gravity_x(G),gravity_y(G),gravity_z(G),user_acc_x(G),user_acc_y(G),user_acc_z(G),magnetic_field_x(microteslas),magnetic_field_y(microteslas),magnetic_field_z(microteslas),latitude(degree),longitude(degree),altitude(meter),speed(m/s),course(degree),timestamp(unix)
1484021050.107965,-0.008894,0.568915,2.625311,-0.196375,0.058317,-0.108377,-0.007493,-0.538719,-0.842452,-0.010757,0.015022,0.001892,12.787613,12.609863,4.772949,,,,,,
,,,,,,,,,,,,,,,,33.759178,-118.389181,321.571960,-1.000000,-1.000000,1484021050.088431
,,,,,,,,,,,,,,,,33.759178,-118.389181,321.571960,-1.000000,-1.000000,1484021045.300071
1484021050.127984,-0.005272,0.563669,2.623092,-0.337088,0.184457,-0.089122,-0.004456,-0.534291,-0.845289,-0.017501,-0.013484,0.007352,12.940308,13.134888,4.920593,,,,,,
1484021050.147973,0.000596,0.554031,2.622070,-0.566441,0.301276,-0.012402,0.000506,-0.526119,-0.850411,-0.025805,-0.016651,-0.021492,12.796906,14.410706,5.363953,,,,,,
1484021050.167993,0.005692,0.540896,2.622592,-0.693026,0.235369,0.031842,0.004879,-0.514905,-0.857234,-0.029629,-0.045078,-0.076498,13.020844,14.259521,4.765076,,,,,,
1484021050.187982,0.011381,0.526895,2.623353,-0.711291,0.409334,0.007081,0.009837,-0.502852,-0.864317,-0.030788,-0.035051,-0.014803,13.174637,15.009399,4.836548,,,,,,
1484021050.208001,0.026510,0.511564,2.622910,-0.844532,1.010161,-0.066338,0.023114,-0.489542,-0.871673,-0.045956,-0.023718,0.025558,13.174637,15.009399,4.836548,,,,,,
1484021050.227990,0.055598,0.491659,2.622201,-1.091527,1.673616,-0.064120,0.048987,-0.472089,-0.880189,-0.052695,-0.018084,0.026109,12.429565,15.911682,5.655945,,,,,,
1484021050.248010,0.092102,0.466556,2.623108,-1.352814,1.952639,-0.049373,0.082142,-0.449813,-0.889337,-0.088795,-0.046387,-0.034064,14.681793,16.358337,5.657104,,,,,,
1484021050.267999,0.134281,0.438067,2.624331,-1.435557,2.235487,-0.180290,0.121236,-0.424190,-0.897421,-0.103307,-0.038365,-0.046762,15.967255,18.308533,7.074219,,,,,,
1484021050.288019,0.182247,0.409876,2.621457,-1.347503,2.418065,-0.465108,0.166228,-0.398495,-0.901981,-0.069976,0.072201,0.044239,16.947769,19.357849,7.595398,,,,,,
1484021050.308013,0.230427,0.381386,2.614817,-1.288850,2.051431,-0.632860,0.211983,-0.372207,-0.903618,-0.071159,0.159606,0.067604,16.947769,19.357849,7.595398,,,,,,
1484021050.328032,0.252246,0.360159,2.609292,-0.732727,0.301264,-0.405381,0.233566,-0.352423,-0.906226,-0.117203,0.117545,-0.019678,18.078827,20.408630,9.241882,,,,,,
1484021050.348021,0.241929,0.352401,2.605711,-0.136371,-0.963389,-0.194898,0.224853,-0.345153,-0.911214,-0.066406,0.097396,0.097112,19.136520,21.833740,10.361328,,,,,,
1484021050.368041,0.216971,0.348158,2.599935,-0.261064,-1.594797,-0.468453,0.202357,-0.341167,-0.917963,0.090658,0.032833,-0.003561,19.143860,23.333252,10.053833,,,,,,
1484021050.388030,0.186453,0.338301,2.585428,-0.310831,-1.601153,-0.930345,0.174867,-0.331885,-0.926970,0.035917,0.003348,0.160125,17.574158,24.459656,9.370911,,,,,,
1484021050.408019,0.182063,0.334753,2.564165,0.198684,0.087068,-1.017428,0.171009,-0.328535,-0.928881,0.008969,0.029662,0.245593,17.574158,24.459656,9.370911,,,,,,
1484021050.428038,0.195169,0.338362,2.548422,0.288376,0.114858,-0.405317,0.182936,-0.331942,-0.925391,-0.079115,-0.036344,-0.230325,16.531738,26.035217,8.761414,,,,,,
1484021050.448027,0.181571,0.345015,2.540375,0.538391,-1.260916,-0.388470,0.169933,-0.338211,-0.925600,-0.115337,0.074264,-0.115842,17.135345,26.710022,9.208923,,,,,,
1484021050.468047,0.145546,0.358534,2.531267,0.837468,-2.449633,-0.165980,0.135810,-0.350902,-0.926511,-0.355659,-0.056782,-0.269885,16.681442,26.108093,7.486267,,,,,,
1484021050.488036,0.077933,0.375741,2.541353,0.835759,-3.606941,1.090891,0.072423,-0.366961,-0.927413,-0.627430,-0.114926,-0.495973,14.655746,26.109009,6.058228,,,,,,
1484021050.508055,-0.004708,0.404122,2.566522,1.741290,-3.489427,0.829541,-0.004329,-0.393211,-0.919438,-0.535680,-0.118370,-0.353771,14.655746,26.109009,6.058228,,,,,,
1484021050.528044,-0.059180,0.442542,2.546197,1.811801,-3.042244,-2.071988,-0.053448,-0.428238,-0.902084,-0.593509,-0.336411,-0.355377,12.397171,24.535278,4.637756,,,,,,
1484021050.548064,-0.091831,0.478684,2.483093,1.497977,-3.230618,-3.315097,-0.081395,-0.460611,-0.883862,-0.770045,-0.377508,-0.293994,10.138443,22.961060,2.917236,,,,,,
1484021050.568053,-0.131002,0.517614,2.404993,1.699298,-4.165785,-3.785272,-0.113516,-0.494808,-0.861556,-0.413248,-0.673893,-0.419816,8.113983,23.113403,2.463440,,,,,,
1484021050.588072,-0.172804,0.571349,2.310294,2.301543,-4.719009,-4.781999,-0.144635,-0.540767,-0.828644,-0.666629,-0.336308,-0.591888,3.617752,24.017883,0.952148,,,,,,
1484021050.608061,-0.201767,0.642990,2.196155,2.755870,-4.790629,-5.647953,-0.160382,-0.599591,-0.784072,-0.656879,-0.172565,-0.555299,3.617752,24.017883,0.952148,,,,,,
1484021050.628081,-0.221219,0.727783,2.048168,3.176701,-6.329129,-7.059822,-0.163830,-0.665216,-0.728456,-0.601063,0.078882,-0.658416,1.367355,23.946167,0.874084,,,,,,
1484021050.648070,-0.233336,0.835341,1.859639,4.037884,-7.708098,-8.088574,-0.155134,-0.741525,-0.652743,-0.438311,0.300424,-0.674955,-0.811539,23.198975,0.574585,,,,,,
1484021050.668089,-0.213387,0.954245,1.632787,4.196352,-7.862592,-8.267391,-0.122451,-0.815878,-0.565110,-0.275834,0.534704,-0.554351,-4.267593,22.003906,0.425354,,,,,,
1484021050.688078,-0.133068,1.056453,1.363514,3.389217,-7.077089,-7.806563,-0.065272,-0.870616,-0.487614,-0.100225,0.748820,-0.557293,-9.022903,15.714539,2.699707,,,,,,
1484021050.708067,0.010627,1.118434,1.054431,2.199321,-6.148727,-7.041549,0.004645,-0.899417,-0.437067,0.105203,0.849963,-0.770911,-9.022903,15.714539,2.699707,,,,,,
1484021050.728087,0.176068,1.139124,0.758239,1.326218,-4.459177,-5.641513,0.073285,-0.908267,-0.411922,0.366580,0.915500,-1.086537,-9.938141,12.567383,3.689087,,,,,,
1484021050.748076,0.315802,1.144915,0.532613,1.716197,-2.683655,-3.787834,0.128308,-0.910675,-0.392694,0.572101,0.995407,-1.475547,-10.774612,10.170166,4.749817,,,,,,
1484021050.768096,0.435123,1.178749,0.358306,3.634003,-1.692046,-1.917242,0.161056,-0.924129,-0.346478,0.619950,1.037791,-1.612079,-10.709366,8.146118,5.434998,,,,,,
1484021050.788085,0.580323,1.254926,0.178530,5.491030,-0.877978,-0.331380,0.170324,-0.950526,-0.259787,0.649241,1.162807,-1.573419,-9.692001,1.324036,8.395630,,,,,,
1484021050.808104,0.855906,1.358912,-0.112016,6.897252,0.267837,1.023737,0.158813,-0.977636,-0.137861,0.508743,1.219320,-1.333865,-9.692001,1.324036,8.395630,,,,,,
1484021050.828093,1.644882,1.442891,-0.880281,7.356520,2.237966,2.063355,0.127207,-0.991831,0.009441,0.270895,1.295161,-1.030666,-9.416199,-3.846375,11.721924,,,,,,
1484021050.848113,2.727549,1.396304,-1.908187,7.148938,3.710896,2.953008,0.069845,-0.984815,0.158938,0.167155,1.275785,-0.768771,-9.512390,-8.490112,15.795044,,,,,,
1484021050.868102,-3.103542,1.274876,-2.296996,6.371706,3.466910,3.423323,-0.011094,-0.956534,0.291409,0.076065,1.200888,-0.521390,-10.124252,-11.406067,21.208618,,,,,,
1484021050.888121,-2.908959,1.153037,-2.442086,5.298919,2.617969,3.265134,-0.093534,-0.914000,0.394785,-0.178378,1.038039,-0.220865,-13.943024,-11.086426,30.501343,,,,,,
1484021050.908110,-2.796484,1.045273,-2.510003,4.497137,2.730239,2.873109,-0.169713,-0.865062,0.472087,-0.374004,0.873515,-0.128871,-13.943024,-11.086426,30.501343,,,,,,
1484021050.928130,-2.708817,0.944901,-2.534591,4.453135,3.898211,2.248454,-0.245690,-0.810439,0.531813,-0.638023,0.812743,-0.260146,-15.808258,-9.577026,34.915955,,,,,,
1484021050.948119,-2.618337,0.848366,-2.518234,4.545445,5.888131,1.471421,-0.330409,-0.750201,0.572738,-0.917272,0.694491,-0.077941,-18.498627,-7.992798,38.354065,,,,,,
1484021050.968138,-2.513974,0.773205,-2.479655,3.301178,7.052232,0.587399,-0.420258,-0.698433,0.579288,-1.043517,0.416481,0.428585,-20.811203,-5.809814,41.339661,,,,,,
1484021050.988127,-2.379033,0.741692,-2.449401,1.093142,8.232181,-0.148136,-0.509326,-0.675536,0.533139,-1.038022,0.226516,0.913134,-21.400620,-3.782654,42.228638,,,,,,
1484021051.008147,-2.212701,0.750410,-2.442207,-0.687278,8.758537,-0.672184,-0.585827,-0.681939,0.437911,-1.008106,0.204110,1.126222,-21.400620,-3.782654,42.228638,,,,,,
1484021051.028136,-2.020494,0.777171,-2.461177,-1.515940,9.116685,-0.881963,-0.642023,-0.701265,0.309893,-0.894308,0.075075,1.120481,-21.780411,-4.239624,37.205322,,,,,,
1484021051.048125,-1.814517,0.809936,-2.497461,-1.902367,8.912062,-1.351786,-0.669167,-0.724243,0.166397,-0.992851,-0.080490,1.071701,-21.490570,-5.821777,32.713745,,,,,,
1484021051.068144,-1.605513,0.856640,-2.549967,-2.127805,8.320025,-2.627681,-0.654586,-0.755646,0.022734,-1.342515,-0.181442,1.037859,-19.023605,-6.883667,27.247681,,,,,,
1484021051.088133,-1.383060,0.926676,-2.628961,-2.248316,7.992591,-4.323824,-0.589944,-0.799628,-0.112074,-1.523017,-0.212884,0.948149,-14.612045,-9.072693,22.315247,,,,,,
1484021051.108153,-1.115761,1.010711,-2.765592,-2.320310,7.469952,-5.716460,-0.477200,-0.847210,-0.233485,-1.347919,-0.160618,0.760981,-14.612045,-9.072693,22.315247,,,,,,
1484021051.128142,-0.800523,1.090754,-2.980459,-1.866240,5.736003,-6.709669,-0.331456,-0.886975,-0.321578,-1.199947,-0.060504,0.483382,-2.638123,-13.527100,14.705505,,,,,,
1484021051.148161,-0.437896,1.148851,2.996322,-1.287054,3.509134,-7.317335,-0.173657,-0.912294,-0.370895,-1.027499,0.019716,0.245834,3.657562,-14.214233,12.918396,,,,,,
1484021051.168150,-0.046961,1.166729,2.617226,-0.727064,1.351984,-7.741462,-0.018456,-0.919469,-0.392728,-0.803367,0.141668,-0.050753,10.263184,-13.025085,12.247314,,,,,,
1484021051.188170,0.309736,1.138075,2.234221,-0.181464,-0.231164,-7.968465,0.127819,-0.907828,-0.399388,-0.654171,0.297324,-0.223399,15.153870,-9.956421,12.989319,,,,,,
1484021051.208159,0.576095,1.067688,1.912243,0.049606,-1.579355,-8.103495,0.262653,-0.876088,-0.404330,-0.434467,0.399892,-0.293057,15.153870,-9.956421,12.989319,,,,,,
1484021051.228179,0.741246,0.971295,1.662925,0.371531,-2.858932,-8.113317,0.380973,-0.825617,-0.416193,-0.270911,0.513697,-0.357916,19.076172,-5.536621,13.348083,,,,,,
1484021051.248168,0.833964,0.867674,1.457124,1.119407,-4.042432,-8.117863,0.478875,-0.762827,-0.434482,-0.144081,0.738901,-0.526288,22.446182,8.409180,13.958496,,,,,,
1484021051.268187,0.880495,0.768636,1.256366,2.608035,-5.627929,-8.368800,0.554280,-0.695155,-0.457748,0.009105,0.884914,-0.790909,22.260818,16.359070,13.693420,,,,,,
1484021051.288176,0.895445,0.687361,1.034865,4.705786,-7.192455,-8.333492,0.603257,-0.634500,-0.483209,0.281249,1.034234,-1.038550,20.421692,23.635315,12.679260,,,,,,
1484021051.308196,0.886092,0.637059,0.788130,6.805918,-8.489764,-7.965748,0.622666,-0.594834,-0.508389,0.487747,1.231431,-1.212512,20.421692,23.635315,12.679260,,,,,,
1484021051.328155,0.864940,0.620865,0.523439,8.158550,-8.952128,-7.225123,0.619025,-0.581739,-0.527625,0.667291,1.363111,-1.207635,16.996292,28.811584,10.098267,,,,,,
1484021051.348144,0.848712,0.627635,0.262605,8.123100,-7.947924,-6.391684,0.607412,-0.587232,-0.534985,0.692118,1.315412,-0.999881,7.693222,28.742371,4.684631,,,,,,
1484021051.368163,0.856038,0.639925,0.030585,6.961687,-5.511124,-5.288240,0.605818,-0.597135,-0.525751,0.593782,1.242002,-0.774542,3.543655,24.020691,2.752014,,,,,,
1484021051.388152,0.893441,0.654018,-0.158696,6.013787,-2.990086,-3.739467,0.618435,-0.608380,-0.497405,0.595508,1.181348,-0.788911,1.868057,18.922913,2.549988,,,,,,
1484021051.408172,0.955836,0.685439,-0.320119,6.082007,-1.304518,-1.791655,0.632316,-0.633013,-0.446622,0.774880,1.107088,-0.846041,1.868057,18.922913,2.549988,,,,,,
1484021051.428161,1.041302,0.747042,-0.466155,6.458904,-0.066602,0.399766,0.633231,-0.679471,-0.370591,0.802148,1.059308,-0.764907,1.538391,12.924377,3.179504,,,,,,
1484021051.448180,1.152881,0.835211,-0.611873,6.648533,0.547986,2.178690,0.613271,-0.741438,-0.272338,0.613810,1.119231,-0.576676,2.181641,6.474976,4.187744,,,,,,
1484021051.468169,1.290655,0.935472,-0.773434,6.397554,0.794057,3.413016,0.570304,-0.804879,-0.164081,0.360162,1.155297,-0.352643,2.870728,-6.193848,9.052063,,,,,,
1484021051.488189,1.475205,1.039100,-0.956265,5.633577,2.245937,4.573338,0.504681,-0.861948,-0.048391,0.177386,1.149104,-0.175547,1.347351,-11.211426,12.449890,,,,,,
1484021051.508178,1.747662,1.137806,-1.186895,4.942313,3.973769,5.356896,0.413042,-0.907715,0.073824,0.013502,1.090424,-0.175066,1.347351,-11.211426,12.449890,,,,,,
1484021051.528197,2.146708,1.207186,-1.516956,4.616125,5.158604,5.596215,0.298283,-0.934619,0.193687,-0.232807,1.091464,-0.225517,-0.990005,-14.126282,16.885925,,,,,,
1484021051.548186,2.651529,1.214278,-1.934339,4.800267,5.920263,5.647427,0.164274,-0.937118,0.307936,-0.419447,0.975768,-0.288160,-3.468750,-15.315857,21.313171,,,,,,
1484021051.568206,3.086168,1.151363,-2.285023,4.645909,4.916914,5.502450,0.022560,-0.913320,0.406617,-0.446830,0.789083,-0.336244,-10.881195,-13.642273,29.693726,,,,,,
1484021051.588195,-2.921452,1.063105,-2.494365,3.597109,4.443636,4.610860,-0.106162,-0.873869,0.474428,-0.662881,0.653807,-0.106539,-15.139740,-10.779419,33.947937,,,,,,
1484021051.608214,-2.728706,0.986877,-2.596815,2.310505,5.924232,3.200953,-0.221211,-0.834308,0.504971,-0.832225,0.430973,0.108738,-15.139740,-10.779419,33.947937,,,,,,
1484021051.628203,-2.534347,0.936440,-2.654987,0.893564,8.303217,2.511493,-0.338176,-0.805453,0.486705,-0.715413,0.303958,0.138280,-18.797791,-7.694336,37.002075,,,,,,
1484021051.648223,-2.288758,0.898641,-2.717879,-0.238061,10.623175,2.860361,-0.468966,-0.782481,0.409627,-0.499800,0.240169,-0.039311,-21.409363,-5.064636,37.585022,,,,,,
1484021051.668212,-2.019572,0.850256,-2.777437,-0.082638,11.293095,3.107894,-0.594458,-0.751449,0.286259,-0.648371,0.197693,-0.358265,-24.619308,-1.468567,31.712219,,,,,,
1484021051.688201,-1.799414,0.796475,-2.789324,0.913429,10.014798,2.383235,-0.681038,-0.714896,0.158468,-0.925194,0.097769,-0.527944,-25.361298,0.551270,27.500977,,,,,,
1484021051.708221,-1.637978,0.758877,-2.762784,1.277065,8.546532,1.375575,-0.723972,-0.688107,0.048711,-0.990902,-0.008441,-0.390813,-25.361298,0.551270,27.500977,,,,,,
1484021051.728210,-1.495141,0.741967,-2.732299,0.991638,8.108556,0.519833,-0.735032,-0.675739,-0.055716,-1.025359,-0.102139,-0.218637,-24.164581,0.244263,24.054382,,,,,,
1484021051.748229,-1.347554,0.747672,-2.713785,0.610701,8.006532,-0.607289,-0.715077,-0.679934,-0.162341,-1.126628,-0.096327,-0.089459,-22.295486,-0.662659,21.286682,,,,,,
1484021051.768218,-1.191570,0.771867,-2.708942,0.512797,7.997929,-1.373268,-0.665696,-0.697474,-0.265290,-1.100799,-0.013280,-0.014251,-19.155533,-2.396667,18.525024,,,,,,
1484021051.788238,-1.030588,0.808879,-2.716566,0.671528,7.570020,-2.039085,-0.592010,-0.723514,-0.355037,-1.087998,-0.024594,0.046595,-11.086273,-8.041199,13.540405,,,,,,
1484021051.808227,-0.881049,0.860029,-2.740175,0.954729,5.940574,-2.864582,-0.503278,-0.757861,-0.415160,-1.129519,-0.082547,0.136656,-11.086273,-8.041199,13.540405,,,,,,
1484021051.828246,-0.748030,0.920188,-2.789752,0.824238,4.053583,-3.476659,-0.411975,-0.795716,-0.443975,-1.048642,-0.114563,0.321203,-5.324982,-10.676514,12.437195,,,,,,
1484021051.848235,-0.612437,0.971744,-2.881751,0.031006,2.556551,-3.861161,-0.324142,-0.825871,-0.461378,-0.941772,-0.040905,0.327665,-0.986816,-13.008484,12.080383,,,,,,
1484021051.868255,-0.461722,1.011053,-3.014459,-0.226685,1.680034,-4.360093,-0.236542,-0.847391,-0.475369,-0.914887,-0.016454,0.229550,3.733536,-13.989807,12.617371,,,,,,
1484021051.888244,-0.281793,1.039535,3.088833,-0.490300,1.040569,-5.239762,-0.140880,-0.862169,-0.486639,-0.872135,0.046800,0.206762,10.786880,-13.325256,12.699585,,,,,,
1484021051.908263,-0.071248,1.046365,2.856410,-0.792443,0.134327,-6.137331,-0.035645,-0.865609,-0.499450,-0.799972,0.110680,0.153122,10.786880,-13.325256,12.699585,,,,,,
1484021051.928252,0.133194,1.022506,2.606334,-1.054615,-1.012955,-6.615616,0.069219,-0.853417,-0.516612,-0.661169,0.220849,0.176997,14.399612,-10.780640,12.692322,,,,,,
1484021051.948272,0.296000,0.971221,2.353466,-0.935488,-3.670002,-7.843911,0.164602,-0.825575,-0.539751,-0.724660,0.372908,0.114352,17.493317,-7.035278,12.678223,,,,,,
1484021051.968261,0.388709,0.892585,2.082619,-0.990807,-7.823942,-9.495469,0.237781,-0.778696,-0.580596,-0.734165,0.668467,-0.137269,19.319717,-1.713806,12.204346,,,,,,
1484021051.988250,0.399641,0.801265,1.823031,-0.703137,-9.600477,-9.674780,0.270727,-0.718237,-0.640970,-0.676748,0.764135,-0.289251,16.711777,17.182922,7.380920,,,,,,
1484021052.008269,0.375300,0.725502,1.590013,-0.076119,-8.977808,-8.998633,0.274242,-0.663511,-0.696092,-0.414088,0.620924,-0.373320,16.711777,17.182922,7.380920,,,,,,
1484021052.028258,0.343015,0.669807,1.375786,0.551879,-8.382480,-8.582368,0.263661,-0.620835,-0.738273,-0.168400,0.603440,-0.617455,11.960831,27.236328,4.923584,,,,,,
1484021052.048278,0.295343,0.642821,1.161985,2.052886,-9.322756,-8.488794,0.232973,-0.599456,-0.765752,-0.035555,0.593947,-0.993403,5.997513,34.742676,3.227112,,,,,,
1484021052.068267,0.243178,0.660227,0.944143,3.682062,-8.880191,-7.912980,0.190187,-0.613296,-0.766613,-0.016176,0.549148,-1.008365,-1.404282,39.477478,2.292297,,,,,,
1484021052.088286,0.215271,0.703641,0.738838,3.942248,-7.224901,-6.945480,0.162877,-0.646998,-0.744892,-0.002126,0.467143,-0.944424,-8.225021,40.460754,1.002197,,,,,,
1484021052.108276,0.217622,0.751942,0.549591,3.868423,-5.635020,-6.126325,0.157692,-0.683058,-0.713137,-0.087700,0.336486,-0.955549,-8.225021,40.460754,1.002197,,,,,,
1484021052.128295,0.247679,0.800711,0.369015,3.807525,-4.403615,-5.541289,0.170676,-0.717851,-0.674952,-0.163992,0.282182,-0.862829,-16.514450,32.449951,2.229736,,,,,,
1484021052.148284,0.302839,0.841577,0.190428,3.530036,-3.490193,-5.228900,0.198708,-0.745695,-0.635967,-0.201668,0.310758,-0.796848,-18.194824,26.303711,3.007996,,,,,,
1484021052.168304,0.380529,0.873415,0.008664,3.506377,-2.695521,-4.969670,0.238525,-0.766527,-0.596274,-0.155197,0.310396,-0.795908,-18.000916,20.004578,3.789795,,,,,,
1484021052.188293,0.476160,0.900015,-0.169270,3.580311,-1.831349,-4.344176,0.284922,-0.783336,-0.552453,-0.048304,0.428523,-0.798743,-16.977844,14.529358,4.643677,,,,,,
1484021052.208312,0.582599,0.927405,-0.345268,4.203868,-1.577003,-3.749543,0.330069,-0.800066,-0.500948,0.005594,0.453096,-0.844282,-16.977844,14.529358,4.643677,,,,,,
1484021052.228301,0.706317,0.962368,-0.535803,5.100312,-1.551608,-3.247083,0.370975,-0.820548,-0.434833,-0.002155,0.546439,-0.794095,-13.434509,2.977356,6.881775,,,,,,
1484021052.248321,0.859098,1.000568,-0.761129,6.246958,-1.905866,-3.085509,0.408784,-0.841778,-0.352570,-0.190080,0.642971,-0.778488,-11.663956,-3.097534,8.714783,,,,,,
1484021052.268310,1.054834,1.029834,-1.050692,7.580083,-2.970493,-3.261678,0.447922,-0.857214,-0.254068,-0.336243,0.716619,-0.752875,-9.363586,-8.346130,11.969482,,,,,,
1484021052.288329,1.280276,1.033198,-1.381191,7.803451,-2.655522,-3.107365,0.490616,-0.858941,-0.146684,-0.247193,0.721764,-0.424574,-6.838867,-13.892517,16.875977,,,,,,
1484021052.308318,1.495687,1.005130,-1.667922,6.649587,-0.479361,-2.462273,0.534467,-0.844232,-0.040219,-0.123746,0.614602,-0.188037,-6.838867,-13.892517,16.875977,,,,,,
1484021052.328306,1.694990,0.967971,-1.875473,5.262553,2.282337,-1.256062,0.562605,-0.823737,0.070233,0.002611,0.539466,-0.086041,-2.664902,-20.182556,27.713684,,,,,,
1484021052.348326,1.882153,0.940569,-2.018782,3.797253,4.073046,-0.038251,0.560993,-0.807893,0.180541,-0.127231,0.532701,-0.032500,-1.090103,-20.702820,32.443726,,,,,,
1484021052.368315,2.053480,0.925314,-2.117222,2.567362,4.974629,0.612878,0.532855,-0.798809,0.279230,-0.325259,0.559048,-0.028467,-1.082092,-19.496826,36.412659,,,,,,
1484021052.388334,2.229525,0.915961,-2.188261,1.877293,6.774156,0.823796,0.481602,-0.793148,0.372794,-0.399495,0.455853,-0.066398,-2.201599,-18.666199,39.106873,,,,,,
1484021052.408323,2.444379,0.902501,-2.252644,1.996662,9.078749,0.925800,0.397867,-0.784879,0.475044,-0.395227,0.382017,-0.140586,-2.201599,-18.666199,39.106873,,,,,,
1484021052.428343,2.686917,0.872916,-2.323343,2.852507,9.033882,1.265888,0.282209,-0.766206,0.577310,-0.224668,0.282243,-0.215387,-4.070496,-17.684814,41.499146,,,,,,
1484021052.448332,2.900428,0.825283,-2.406402,3.239780,6.782693,2.108559,0.162013,-0.734740,0.658718,-0.341212,0.318022,-0.041790,-10.196259,-13.318298,46.343079,,,,,,
1484021052.468351,3.079567,0.772511,-2.480753,2.750652,6.399401,2.132512,0.044392,-0.697936,0.714783,-0.675206,0.295684,0.294174,-13.628326,-10.009033,49.096436,,,,,,
1484021052.488340,-3.026433,0.732865,-2.523030,1.421375,8.154186,1.122014,-0.085404,-0.669002,0.738338,-0.755645,0.122889,0.468983,-17.285278,-6.625183,51.324036,,,,,,
1484021052.508360,-2.828098,0.720845,-2.535445,0.021103,10.470751,0.361969,-0.231674,-0.660020,0.714634,-0.539109,0.069642,0.408841,-17.285278,-6.625183,51.324036,,,,,,
1484021052.528349,-2.574281,0.726540,-2.554025,-0.872050,13.009381,0.687285,-0.401670,-0.664287,0.630384,-0.326144,0.078716,0.223849,-20.798386,-4.220276,51.081787,,,,,,
1484021052.548368,-2.279056,0.731834,-2.590518,-1.134674,13.736321,0.766476,-0.565027,-0.668235,0.483949,-0.738928,0.016639,0.412825,-25.892044,-2.051147,42.063293,,,,,,
1484021052.568358,-2.003812,0.748536,-2.615999,-1.328807,12.116327,-0.970315,-0.665062,-0.680567,0.307443,-1.034645,-0.057074,0.384131,-26.643707,-1.685486,35.085266,,,,,,
1484021052.588377,-1.777366,0.798157,-2.641616,-1.820031,9.791903,-2.582346,-0.683188,-0.716071,0.143168,-0.997156,-0.053064,0.413152,-24.480209,-3.274353,27.971436,,,,,,
1484021052.608366,-1.534862,0.857184,-2.699493,-2.503169,10.401912,-2.847316,-0.654146,-0.756002,-0.023517,-0.632032,0.059164,0.483386,-24.480209,-3.274353,27.971436,,,,,,
1484021052.628386,-1.231575,0.900450,-2.806160,-3.164030,11.435270,-2.681605,-0.585855,-0.783606,-0.206725,-0.436911,0.084830,0.379897,-20.223022,-6.215088,21.767578,,,,,,
1484021052.648375,-0.901193,0.915547,-2.933182,-2.900731,11.394958,-2.526727,-0.477777,-0.792896,-0.378213,-0.355658,0.085529,0.161080,-14.238052,-8.632935,15.863647,,,,,,
1484021052.668364,-0.605975,0.918575,-3.046459,-1.726853,9.500904,-2.709407,-0.345699,-0.794738,-0.498883,-0.509251,-0.016023,-0.049319,-0.000671,-10.390747,8.243713,,,,,,
1484021052.688383,-0.366963,0.932086,3.136304,-0.332622,7.054903,-3.174242,-0.213892,-0.802866,-0.556469,-0.589972,0.010431,-0.084065,6.520737,-11.076050,7.881958,,,,,,
1484021052.708372,-0.158088,0.951800,3.026510,0.318679,5.617087,-3.433803,-0.091344,-0.814461,-0.572983,-0.546488,-0.045585,-0.001205,6.520737,-11.076050,7.881958,,,,,,
1484021052.728392,0.041905,0.964055,2.912172,0.417022,5.224989,-3.258728,0.023887,-0.821511,-0.569693,-0.454200,-0.048301,0.102484,11.542633,-11.831543,9.243225,,,,,,
1484021052.748381,0.232635,0.961238,2.802473,0.200944,4.936280,-3.062460,0.131987,-0.819901,-0.557083,-0.434797,-0.059417,0.139542,16.495804,-11.386169,11.123474,,,,,,
1484021052.768400,0.399719,0.945156,2.704414,0.153620,3.924065,-2.953165,0.227898,-0.810588,-0.539453,-0.358010,-0.022618,0.060129,23.183029,-9.512695,16.824097,,,,,,
1484021052.788389,0.537572,0.926286,2.607076,0.720748,2.382323,-2.990803,0.307644,-0.799394,-0.516066,-0.267636,0.021013,-0.101823,25.591797,-8.012451,19.370239,,,,,,
1484021052.808409,0.641746,0.915401,2.512915,1.343596,1.000793,-2.437384,0.364827,-0.792807,-0.488220,-0.071462,0.062598,-0.103593,25.591797,-8.012451,19.370239,,,,,,
1484021052.828398,0.707180,0.911511,2.429939,1.467142,-0.767185,-1.975190,0.397971,-0.790430,-0.465660,0.006021,0.179804,-0.056694,27.328537,-5.911316,21.837402,,,,,,
1484021052.848417,0.732355,0.909451,2.349915,1.592700,-2.509300,-1.890907,0.410654,-0.789167,-0.456705,0.077063,0.129682,-0.045340,28.688873,-3.961609,23.029663,,,,,,
1484021052.868406,0.731848,0.907920,2.273295,1.442013,-3.253859,-1.757729,0.411230,-0.788225,-0.457811,0.114954,0.158159,-0.045790,29.228439,-0.963684,22.190491,,,,,,
1484021052.888426,0.717294,0.904538,2.204421,1.224474,-3.574286,-1.708235,0.406273,-0.786139,-0.465754,0.085487,0.228782,-0.138219,29.231537,-0.141724,20.161377,,,,,,
1484021052.908415,0.698318,0.901428,2.135759,1.320145,-3.664721,-1.733425,0.398932,-0.784214,-0.475249,0.119332,0.102177,-0.250566,29.231537,-0.141724,20.161377,,,,,,
1484021052.928434,0.684005,0.899573,2.065144,1.297661,-3.348533,-1.765418,0.393008,-0.783062,-0.482037,0.115171,0.072506,-0.267735,28.639297,1.581604,18.426880,,,,,,
1484021052.948423,0.675254,0.895058,1.998264,1.045025,-2.929280,-1.775974,0.390981,-0.780246,-0.488212,0.074168,0.086459,-0.269982,28.495834,3.079041,16.544128,,,,,,
1484021052.968443,0.663401,0.888444,1.932424,1.080026,-3.444811,-1.874622,0.388336,-0.776091,-0.496868,0.053208,0.043868,-0.402623,27.527405,4.577637,14.660217,,,,,,
1484021052.988432,0.641452,0.887633,1.858764,1.616841,-4.222535,-1.848895,0.377714,-0.775580,-0.505775,0.135729,0.046439,-0.436410,25.438812,7.200684,11.268982,,,,,,
1484021053.008421,0.617118,0.898913,1.777203,2.132589,-4.513316,-1.677170,0.360210,-0.782651,-0.507648,0.114369,0.131803,-0.350369,25.438812,7.200684,11.268982,,,,,,
1484021053.028441,0.588521,0.917323,1.696633,2.132778,-4.636689,-1.439815,0.337491,-0.793977,-0.505668,0.130252,0.173784,-0.222237,23.793427,8.325073,9.235840,,,,,,
1484021053.048430,0.546581,0.936631,1.623894,1.959268,-5.485522,-1.266921,0.307966,-0.805567,-0.506181,0.203493,0.191217,-0.126158,21.397751,9.449768,6.676697,,,,,,
1484021053.068449,0.465640,0.960925,1.554885,2.145154,-7.783471,-1.091892,0.257167,-0.819722,-0.511783,0.324376,0.209797,-0.041242,19.148544,9.751038,5.246826,,,,,,
1484021053.088438,0.341149,0.998832,1.491304,2.670785,-9.353556,-0.739967,0.181098,-0.840839,-0.510091,0.273080,0.359485,-0.048381,10.147964,10.132080,0.281372,,,,,,
1484021053.108458,0.185309,1.054436,1.446170,3.177041,-9.948374,-0.218658,0.090968,-0.869622,-0.485266,0.300161,0.368523,-0.034143,10.147964,10.132080,0.281372,,,,,,
1484021053.128447,-0.005804,1.116727,1.439220,3.035435,-9.778182,0.345037,-0.002546,-0.898670,-0.438619,0.408185,0.329547,0.064626,3.096146,9.915344,-1.228149,,,,,,
1484021053.148466,-0.240427,1.170219,1.489936,2.683092,-9.369891,0.884703,-0.092854,-0.920836,-0.378734,0.401051,0.323897,0.111964,-3.883087,9.026611,-0.784180,,,,,,
1484021053.168455,-0.529607,1.211336,1.587942,2.580116,-10.315615,0.893764,-0.177712,-0.936087,-0.303578,0.232475,0.255545,0.054708,-11.535812,8.290955,1.158081,,,,,,
1484021053.188475,-0.857060,1.239890,1.716784,2.417098,-10.133238,0.743686,-0.245599,-0.945748,-0.212700,0.098962,0.231194,0.105065,-26.074478,9.528076,11.405029,,,,,,
1484021053.208464,-1.170950,1.247401,1.861195,1.998725,-7.870645,0.994031,-0.292721,-0.948162,-0.123707,0.023082,0.181759,0.068913,-26.074478,9.528076,11.405029,,,,,,
1484021053.228483,-1.375339,1.233283,1.959071,0.799446,-4.149917,1.278245,-0.324836,-0.943581,-0.064313,0.054756,0.045769,0.135007,-31.692841,10.221069,17.768127,,,,,,
1484021053.248472,-1.399506,1.200672,1.953811,-1.144221,0.185111,1.792157,-0.356437,-0.932283,-0.061658,0.074669,-0.015838,0.243772,-35.284195,11.434265,22.931702,,,,,,
1484021053.268492,-1.250701,1.149084,1.851671,-3.389094,4.201302,2.151583,-0.388532,-0.912389,-0.128797,0.148969,0.040990,0.272580,-37.747314,13.615784,24.867065,,,,,,
1484021053.288481,-0.998258,1.068288,1.705528,-5.368647,7.041679,2.272463,-0.404820,-0.876377,-0.260929,0.208439,0.145878,0.143299,-38.079758,22.830811,17.845520,,,,,,
1484021053.308500,-0.736863,0.956999,1.586203,-6.263706,8.434243,2.117023,-0.387037,-0.817467,-0.426556,0.219831,0.186638,-0.046207,-38.079758,22.830811,17.845520,,,,,,
1484021053.328492,-0.515399,0.837574,1.519017,-5.838903,8.315308,1.607855,-0.329870,-0.743021,-0.582327,0.205251,0.164820,-0.225610,-36.026016,29.193481,11.666809,,,,,,
1484021053.348481,-0.339164,0.733529,1.490015,-4.777133,7.476950,1.020467,-0.247134,-0.669495,-0.700500,0.215350,0.125321,-0.236038,-31.645187,35.928345,6.014709,,,,,,
1484021053.368501,-0.190547,0.646379,1.478518,-4.208585,6.946291,0.533174,-0.151189,-0.602300,-0.783822,0.293722,0.076131,-0.053977,-26.741730,41.990479,2.316772,,,,,,
1484021053.388490,-0.054396,0.560258,1.473628,-4.360634,6.399549,0.282949,-0.046057,-0.531405,-0.845865,0.372153,0.108965,-0.080420,-21.094666,46.628662,0.052002,,,,,,
1484021053.408509,0.050523,0.479767,1.485901,-3.721941,5.084083,0.726744,0.044800,-0.461573,-0.885970,0.295059,0.073115,-0.287247,-21.094666,46.628662,0.052002,,,,,,
1484021053.428498,0.127665,0.423171,1.511514,-2.460742,4.067279,0.942239,0.116088,-0.410654,-0.904371,0.167619,0.072076,-0.342028,-10.623871,55.837219,-0.428345,,,,,,
1484021053.448518,0.188062,0.391334,1.535743,-1.374097,3.148032,0.793298,0.172822,-0.381422,-0.908102,0.120162,0.043226,-0.301904,-7.161545,58.232971,0.239868,,,,,,
1484021053.468507,0.229938,0.376428,1.553855,-0.693537,2.062867,0.587802,0.211959,-0.367601,-0.905507,0.139115,-0.037337,-0.175365,-3.327377,60.027832,0.611633,,,,,,
1484021053.488527,0.255354,0.367616,1.570032,-0.646743,1.292451,0.697356,0.235712,-0.359392,-0.902927,0.127738,-0.071959,-0.047756,-1.375061,60.401245,1.512756,,,,,,
1484021053.508516,0.262151,0.355197,1.593597,-1.051105,0.433999,1.043571,0.242981,-0.347775,-0.905545,0.033462,-0.101154,0.026654,-1.375061,60.401245,1.512756,,,,,,
1484021053.528535,0.249426,0.337427,1.626181,-1.336153,-0.397917,1.375910,0.232928,-0.331060,-0.914409,-0.060381,-0.106501,0.078700,1.028137,60.998291,1.963379,,,,,,
1484021053.548524,0.218098,0.318737,1.660391,-1.106309,-1.437207,1.251708,0.205475,-0.313368,-0.927136,-0.242203,-0.078051,-0.009266,1.409439,62.272461,1.807556,,,,,,
1484021053.568544,0.175822,0.313724,1.680292,-0.203130,-2.020020,0.638075,0.166380,-0.308603,-0.936527,-0.292067,-0.202964,-0.083127,0.215561,63.474670,2.024780,,,,,,
1484021053.588533,0.131169,0.314607,1.686031,0.040194,-2.122503,0.136701,0.124373,-0.309443,-0.942749,-0.313933,-0.100622,-0.053955,-1.053650,64.675842,1.566833,,,,,,
1484021053.608552,0.092926,0.315671,1.687524,-0.122819,-1.855343,0.133755,0.088207,-0.310455,-0.946487,-0.195507,-0.082139,-0.128525,-1.053650,64.675842,1.566833,,,,,,
1484021053.628541,0.062562,0.304709,1.694688,-0.869824,-1.197594,0.418330,0.059641,-0.300016,-0.952068,-0.084269,-0.034197,0.081218,-3.152603,64.977661,0.662170,,,,,,
1484021053.648561,0.039908,0.282114,1.706472,-1.250905,-0.757264,0.504187,0.038320,-0.278387,-0.959704,-0.073446,-0.070521,0.145404,-6.889175,67.682983,0.493103,,,,,,
1484021053.668550,0.027173,0.260636,1.717070,-0.919691,-0.368952,0.442384,0.026252,-0.257696,-0.965869,-0.067283,-0.120432,0.030399,-7.850067,70.460083,0.927673,,,,,,
1484021053.688539,0.021772,0.245889,1.724711,-0.751753,-0.093479,0.325082,0.021115,-0.243418,-0.969692,-0.016400,-0.027395,-0.046941,-8.218536,71.736084,1.220825,,,,,,
1484021053.708558,0.024095,0.226687,1.730534,-1.109490,0.458747,0.179137,0.023476,-0.224751,-0.974133,0.055733,0.149098,0.049893,-8.218536,71.736084,1.220825,,,,,,
1484021053.728547,0.045349,0.201279,1.730920,-1.306087,1.359680,-0.129899,0.044418,-0.199922,-0.978804,0.010178,0.131746,0.076949,-8.285217,73.386414,1.362427,,,,,,
1484021053.748567,0.070997,0.180647,1.729930,-0.776727,1.133847,-0.031526,0.069783,-0.179666,-0.981249,-0.098378,0.070596,-0.063016,-8.115860,77.137878,2.543945,,,,,,
1484021053.768556,0.086342,0.175545,1.734554,0.004877,0.569157,0.367514,0.084910,-0.174645,-0.980964,-0.006617,0.022225,-0.202691,-6.835663,78.112061,3.216003,,,,,,
1484021053.788575,0.091373,0.184954,1.746317,0.637239,0.283421,0.766690,0.089690,-0.183901,-0.978844,0.023775,0.007571,-0.114997,-5.416321,77.058655,2.398376,,,,,,
1484021053.808564,0.093370,0.203416,1.765038,0.910359,0.268459,1.140977,0.091312,-0.202016,-0.975116,0.025539,0.083180,-0.086438,-5.416321,77.058655,2.398376,,,,,,
1484021053.828584,0.080904,0.220450,1.785886,0.612273,-0.897459,0.945484,0.078860,-0.218669,-0.972607,-0.005404,0.140071,-0.201282,-5.425552,75.257996,1.957397,,,,,,
1484021053.848573,0.060881,0.234352,1.798977,0.714329,-0.682791,0.537621,0.059180,-0.232212,-0.970863,0.055566,0.070088,-0.070259,-3.940796,72.328979,0.774231,,,,,,
1484021053.868592,0.055767,0.251405,1.803920,0.917510,0.141047,0.135827,0.053986,-0.248765,-0.967058,0.041961,0.015367,0.003771,-4.633270,69.027100,-1.160278,,,,,,
1484021053.888581,0.070101,0.269807,1.802319,0.897097,0.963775,-0.043675,0.067509,-0.266545,-0.961455,0.013301,0.008001,0.057692,-4.418350,67.075806,-1.825195,,,,,,
1484021053.908601,0.090267,0.284326,1.804980,0.653611,0.984615,0.354257,0.086525,-0.280510,-0.955943,-0.076790,0.082726,-0.137853,-4.418350,67.075806,-1.825195,,,,,,
1484021053.928590,0.104464,0.293952,1.815931,0.309374,0.966452,0.654292,0.099801,-0.289737,-0.951889,0.003440,-0.010038,0.032562,-2.860046,63.846802,-2.931702,,,,,,
1484021053.948610,0.118357,0.301737,1.829638,0.407949,0.922767,0.613556,0.112746,-0.297179,-0.948142,0.037293,0.077376,0.018683,-1.822159,61.444885,-3.143127,,,,,,
1484021053.968599,0.136522,0.314840,1.838770,0.637984,1.005536,0.534188,0.129408,-0.309664,-0.941999,0.066148,0.038485,0.060804,0.933640,57.689575,-3.945190,,,,,,
1484021053.988618,0.147159,0.327713,1.851571,0.480009,0.613217,0.815191,0.138825,-0.321879,-0.936548,-0.008698,0.004252,-0.104926,2.494354,54.911011,-4.753967,,,,,,
1484021054.008607,0.155313,0.337458,1.871515,0.268005,0.894524,1.107362,0.145965,-0.331089,-0.932241,-0.008651,-0.009227,-0.018335,2.494354,54.911011,-4.753967,,,,,,
1484021054.028596,0.176750,0.343508,1.897331,0.000454,1.942939,1.333727,0.165559,-0.336792,-0.926910,0.004287,-0.037262,0.156844,3.385025,53.034851,-4.668274,,,,,,
1484021054.048616,0.209108,0.350117,1.928273,0.150985,1.953531,1.619864,0.194994,-0.343007,-0.918871,0.055616,-0.055155,-0.038542,4.948792,50.856445,-5.330078,,,,,,
1484021054.068605,0.215712,0.369396,1.963003,0.906805,0.300611,1.889287,0.199605,-0.361052,-0.910933,0.068202,0.001433,-0.222306,10.389648,44.023376,-5.287720,,,,,,
1484021054.088624,0.195059,0.403342,1.999212,1.499287,-0.552112,2.031361,0.178270,-0.392495,-0.902312,0.117475,0.008141,-0.158707,10.742065,39.670410,-6.915405,,,,,,
1484021054.108613,0.174417,0.439755,2.034362,1.415124,-0.029248,1.788463,0.157023,-0.425717,-0.891128,0.241445,0.048627,-0.077912,10.742065,39.670410,-6.915405,,,,,,
1484021054.128633,0.172864,0.464959,2.063924,0.749451,0.874044,1.387393,0.153745,-0.448386,-0.880518,0.219455,0.213111,-0.072256,10.649689,36.146240,-6.447937,,,,,,
1484021054.148622,0.185055,0.479058,2.089512,0.453569,1.287757,1.227464,0.163287,-0.460944,-0.872278,0.084271,0.162512,-0.037726,11.900787,31.492493,-7.697815,,,,,,
1484021054.168641,0.175264,0.513019,2.117918,2.316918,-0.383367,1.789346,0.151921,-0.490810,-0.857919,-0.122823,-0.099735,0.170694,12.709885,28.340881,-7.980835,,,,,,
1484021054.188630,0.148085,0.578127,2.146651,3.211683,-0.611123,1.691471,0.123567,-0.546456,-0.828322,0.180861,0.036340,-0.138979,13.565903,19.564331,-8.160706,,,,,,
1484021054.208650,0.131269,0.643384,2.175124,2.980154,0.352028,1.496701,0.104723,-0.599906,-0.793187,0.170316,0.087959,-0.132777,13.565903,19.564331,-8.160706,,,,,,
1484021054.228639,0.130688,0.700337,2.199896,2.511788,0.893807,1.274850,0.099643,-0.644475,-0.758105,0.079526,0.132604,-0.109556,13.759903,13.339417,-7.904236,,,,,,
1484021054.248658,0.130930,0.749871,2.227846,2.304129,0.902393,1.494926,0.095538,-0.681544,-0.725514,-0.038486,-0.041799,0.046818,14.630188,7.412781,-8.098328,,,,,,
1484021054.268647,0.116974,0.802347,2.270357,2.484881,0.766518,2.019876,0.081114,-0.718989,-0.690272,-0.063704,-0.104116,0.021143,16.031952,2.686890,-7.322632,,,,,,
1484021054.288667,0.089927,0.855113,2.329332,2.352916,0.848832,2.429044,0.058924,-0.754645,-0.653482,-0.061366,-0.154840,-0.083182,16.886047,-6.760437,-4.649048,,,,,,
1484021054.308656,0.037856,0.903298,2.414151,2.174123,0.503690,3.133864,0.023428,-0.785373,-0.618579,-0.215551,-0.287167,-0.132794,16.886047,-6.760437,-4.649048,,,,,,
,,,,,,,,,,,,,,,,33.759114,-118.389534,321.571960,-1.000000,-1.000000,1484021054.305250
1484021054.328636,-0.048753,0.941746,2.527995,1.744172,0.039829,3.580360,-0.028674,-0.808587,-0.587678,-0.264356,-0.219047,-0.077041,16.043060,-10.432983,-3.881958,,,,,,
1484021054.348625,-0.151910,0.962539,2.641928,1.189021,-0.875083,2.772842,-0.086474,-0.820645,-0.564858,-0.059355,0.315121,-0.178901,15.125504,-14.104309,-2.289978,,,,,,
1484021054.368645,-0.237271,0.969752,2.724687,0.606484,-0.701114,2.038250,-0.132922,-0.824746,-0.549660,-0.052091,-0.007728,0.106606,12.788986,-16.499329,-1.381531,,,,,,
1484021054.388634,-0.299075,0.971847,2.793236,0.763493,-0.025345,1.743882,-0.166109,-0.825928,-0.538749,-0.174666,-0.034194,0.022239,9.183960,-17.617249,-0.256348,,,,,,
1484021054.408623,-0.353138,0.986571,2.858503,1.625886,-0.076863,1.340663,-0.190751,-0.834140,-0.517518,-0.321334,0.080722,-0.098968,9.183960,-17.617249,-0.256348,,,,,,
1484021054.428643,-0.427545,1.016162,2.935736,2.470406,-0.675778,1.473690,-0.218362,-0.850093,-0.479229,-0.383506,-0.054280,-0.094365,8.202866,-18.963806,1.023926,,,,,,
1484021054.448632,-0.546076,1.049884,3.051252,3.078592,-1.082918,2.049329,-0.258460,-0.867366,-0.425294,-0.147592,-0.034139,-0.073134,6.995804,-20.534668,2.604980,,,,,,
1484021054.468651,-0.690804,1.078037,-3.086140,3.254206,-0.685255,1.885630,-0.301412,-0.881031,-0.364602,-0.129572,0.205311,0.072549,5.036575,-22.628052,5.087524,,,,,,
1484021054.488640,-0.816614,1.109022,-2.952258,3.211169,-0.147313,0.698716,-0.324721,-0.895263,-0.305056,-0.183915,0.164779,0.078967,3.457123,-23.821106,8.091125,,,,,,
1484021054.508660,-0.916040,1.149598,-2.841371,3.072936,0.130757,-0.477553,-0.324302,-0.912600,-0.248978,-0.209924,0.073854,0.038148,3.457123,-23.821106,8.091125,,,,,,
1484021054.528649,-1.003773,1.200679,-2.745188,2.931845,-0.066049,-1.322218,-0.305116,-0.932285,-0.194291,-0.243163,0.105366,-0.010314,2.244843,-26.811340,13.429199,,,,,,
1484021054.548668,-1.096261,1.257213,-2.654743,2.584306,-0.583393,-1.902970,-0.274384,-0.951234,-0.140947,-0.252822,0.218874,-0.031294,2.541550,-27.781982,16.584534,,,,,,
1484021054.568657,-1.189862,1.313821,-2.573701,1.973421,-0.937696,-2.211459,-0.235938,-0.967163,-0.094492,-0.254449,0.302689,-0.070577,4.114777,-28.380737,18.989929,,,,,,
1484021054.588677,-1.286834,1.370886,-2.497043,1.716103,-1.226303,-2.491011,-0.190629,-0.980084,-0.055635,-0.187988,0.266049,-0.029769,5.542587,-28.005066,20.865173,,,,,,
1484021054.608666,-1.463541,1.424001,-2.345617,1.871376,-1.418414,-2.224568,-0.145428,-0.989245,-0.015658,-0.075229,0.154040,-0.007901,5.542587,-28.005066,20.865173,,,,,,
1484021054.628685,-1.769684,1.461182,-2.063568,1.524594,-1.188424,-1.681453,-0.107239,-0.993998,0.021614,-0.133438,0.122752,-0.079735,9.220734,-27.705627,24.169189,,,,,,
1484021054.648674,-2.054919,1.471911,-1.800052,0.884387,-1.224933,-0.459421,-0.087380,-0.995115,0.045950,-0.023918,0.100324,-0.154836,10.124908,-27.029602,25.742126,,,,,,
1484021054.668694,-2.149227,1.457811,-1.732609,0.590621,-1.432649,0.900266,-0.094404,-0.993624,0.061639,0.160550,0.074297,-0.111565,10.578888,-26.279541,26.264038,,,,,,
1484021054.688683,-2.138748,1.432890,-1.773027,0.379927,-1.474048,1.187125,-0.115888,-0.990506,0.073946,0.234433,0.110791,-0.088808,9.982742,-25.602356,27.159790,,,,,,
1484021054.708702,-2.147313,1.418615,-1.792382,0.213421,-1.367374,0.251965,-0.127092,-0.988443,0.082636,0.171297,0.239663,-0.060877,9.982742,-25.602356,27.159790,,,,,,
1484021054.728691,-2.241010,1.424296,-1.724935,0.271105,-1.339200,-0.909761,-0.114401,-0.989288,0.090674,0.083792,0.300689,-0.176246,8.110977,-24.998840,27.604004,,,,,,
1484021054.748680,-2.397671,1.437372,-1.593510,0.113732,-1.323392,-1.113074,-0.090084,-0.991112,0.097885,0.139691,0.223915,-0.187836,8.189774,-24.322693,28.425659,,,,,,
1484021054.768700,-2.510412,1.452467,-1.504356,-0.393162,-1.141316,-0.771367,-0.069663,-0.993007,0.095308,0.260795,0.119106,-0.172670,8.867798,-23.723633,28.498718,,,,,,
1484021054.788689,-2.588158,1.466721,-1.445757,-0.353832,-0.870360,-0.675658,-0.054605,-0.994589,0.088380,0.352761,-0.094782,-0.188782,9.770538,-23.125732,27.972107,,,,,,
1484021054.808708,-2.750860,1.477286,-1.298025,-0.000404,-0.760735,-1.062208,-0.035563,-0.995631,0.086336,0.259699,-0.147405,-0.267107,9.770538,-23.125732,27.972107,,,,,,
1484021054.828697,-3.020444,1.480032,-1.042585,0.227142,-0.786296,-1.114547,-0.010954,-0.995884,0.089975,0.174025,-0.051510,-0.296259,9.997620,-22.676636,27.670166,,,,,,
1484021054.848717,3.116784,1.479227,-0.909499,-0.076784,-0.582818,-0.214715,0.002268,-0.995810,0.091413,0.178274,-0.105859,-0.176207,11.200989,-22.003357,27.668579,,,,,,
1484021054.868706,-3.095030,1.483575,-0.990838,-0.250040,-0.425906,0.619979,-0.004055,-0.996199,0.087017,0.204464,-0.159319,-0.148083,11.727661,-21.629761,27.292480,,,,,,
1484021054.888726,-2.930504,1.485282,-1.162191,-0.114966,-0.257067,0.694919,-0.017896,-0.996346,0.083515,0.183637,-0.199028,-0.161014,11.578415,-21.479553,27.291565,,,,,,
1484021054.908715,-2.843861,1.483606,-1.254604,-0.002225,-0.304441,0.208439,-0.025545,-0.996201,0.083249,0.144961,-0.075378,-0.180341,11.578415,-21.479553,27.291565,,,,,,
1484021054.928734,-2.841997,1.484606,-1.262203,-0.102158,-0.244554,-0.048624,-0.025406,-0.996288,0.082250,0.095902,0.022014,-0.121617,10.903839,-21.403442,27.365173,,,,,,
1484021054.948723,-2.956542,1.505704,-1.151474,-0.385042,-0.170446,-0.173095,-0.011968,-0.997882,0.063935,0.071355,0.065372,-0.093949,11.056534,-20.878357,27.512756,,,,,,
1484021054.968743,-3.009514,1.516500,-1.100501,-0.550776,-0.080515,-0.259024,-0.007147,-0.998526,0.053797,0.079703,0.066352,-0.088815,11.656693,-20.804993,27.063293,,,,,,
1484021054.988732,-3.088988,1.528122,-1.022278,-0.549812,-0.080540,-0.224890,-0.002243,-0.999090,0.042602,0.111771,0.011846,-0.129822,11.284119,-20.279968,26.685120,,,,,,
1484021055.008751,3.101910,1.537556,-0.933379,-0.411488,-0.225940,-0.111639,0.001318,-0.999448,0.033208,0.046869,-0.050922,-0.148229,11.284119,-20.279968,26.685120,,,,,,
1484021055.028740,-2.972975,1.558147,-1.146739,-0.273747,-0.254811,0.251789,-0.002123,-0.999920,0.012470,-0.013670,-0.073933,-0.149265,11.282913,-20.505188,26.536194,,,,,,
1484021055.048760,-2.029977,1.558189,-2.093128,-0.401455,-0.126706,0.552634,-0.011301,-0.999921,0.005588,0.035334,-0.007419,-0.086780,11.958801,-20.281860,26.086182,,,,,,
1484021055.068749,-1.195091,1.548201,-2.930016,-0.433759,-0.080257,0.534858,-0.021017,-0.999745,-0.008290,0.032171,-0.003002,-0.094600,11.583664,-20.281799,25.785522,,,,,,
1484021055.088768,-1.081921,1.538213,-3.045475,-0.325765,-0.149111,0.260901,-0.028762,-0.999469,-0.015300,0.014113,-0.015530,-0.114568,10.909714,-20.056030,25.633423,,,,,,
1484021055.108757,-0.756135,1.529256,2.908617,-0.412729,-0.203620,-0.137529,-0.028493,-0.999137,-0.030212,0.007207,0.033760,-0.064011,10.909714,-20.056030,25.633423,,,,,,
1484021055.128746,-0.451338,1.523642,2.598862,-0.749499,-0.230602,-0.526374,-0.020560,-0.998888,-0.042417,0.000540,0.101946,-0.033801,10.609665,-20.055664,25.557983,,,,,,
1484021055.148766,-0.157476,1.511892,2.299259,-0.782773,-0.325321,-0.581741,-0.009232,-0.998266,-0.058142,-0.068038,0.048971,-0.036676,10.911011,-19.756531,25.256958,,,,,,
1484021055.168755,-0.034777,1.499625,2.168886,-0.400824,-0.408144,-0.407821,-0.002473,-0.997468,-0.071068,-0.127227,-0.003584,-0.042106,12.036804,-19.460327,23.832214,,,,,,
1484021055.188774,0.033922,1.495517,2.093944,-0.149422,-0.167316,-0.173516,0.002551,-0.997168,-0.075165,-0.060107,-0.017008,-0.022994,12.262115,-19.385803,23.757141,,,,,,
1484021055.208763,-0.008649,1.490814,2.133338,-0.218599,-0.141620,0.065937,-0.000691,-0.996803,-0.079895,-0.027522,0.006599,0.004501,12.262115,-19.385803,23.757141,,,,,,
1484021055.228783,-0.044581,1.485730,2.166073,-0.241932,-0.193923,0.148692,-0.003786,-0.996384,-0.084879,-0.032407,-0.021133,-0.003759,12.636566,-19.461914,23.383118,,,,,,
1484021055.248772,-0.088699,1.481376,2.206523,-0.130724,-0.181158,0.026188,-0.007911,-0.996005,-0.088950,-0.015542,-0.054655,-0.013452,12.413406,-19.086670,23.305908,,,,,,
1484021055.268791,-0.078102,1.479208,2.191451,-0.116112,-0.238250,-0.082871,-0.007136,-0.995809,-0.091182,-0.024038,-0.043086,-0.001928,12.411713,-19.387268,22.932373,,,,,,
1484021055.288780,-0.099805,1.477209,2.207817,-0.159863,-0.278017,0.020996,-0.009311,-0.995624,-0.092986,-0.036785,-0.021039,0.016692,12.186813,-19.386597,23.157043,,,,,,
1484021055.308800,-0.119267,1.474615,2.222643,-0.034763,-0.199490,0.085374,-0.011426,-0.995378,-0.095351,-0.021777,-0.075850,0.041900,12.186813,-19.386597,23.157043,,,,,,
1484021055.328779,-0.122007,1.477440,2.220631,0.146517,-0.253973,-0.118169,-0.011345,-0.995645,-0.092528,-0.016395,-0.037970,-0.009310,12.713165,-19.087830,22.856323,,,,,,
1484021055.348799,-0.077536,1.481504,2.171922,0.194679,-0.193908,-0.318281,-0.006907,-0.996016,-0.088906,-0.031133,-0.021348,-0.007911,12.335754,-19.537781,22.558044,,,,,,
1484021055.368788,-0.010188,1.485971,2.101005,0.204703,-0.114221,-0.297978,-0.000863,-0.996405,-0.084719,0.009240,-0.041697,0.039690,12.936096,-19.463745,22.483521,,,,,,
1484021055.388806,0.030085,1.490017,2.058398,0.194564,-0.130447,-0.079141,0.002427,-0.996739,-0.080655,0.019805,-0.052486,-0.001940,12.562042,-19.312622,22.857239,,,,,,
1484021055.408795,-0.001541,1.495187,2.087128,0.318800,-0.173170,0.212961,-0.000116,-0.997143,-0.075537,0.000284,-0.121662,-0.024011,12.562042,-19.312622,22.857239,,,,,,
1484021055.428815,-0.069992,1.502540,2.152414,0.392249,-0.144908,0.194664,-0.004770,-0.997671,-0.068036,-0.012549,-0.032159,-0.025058,12.635468,-19.612976,22.708862,,,,,,
1484021055.448804,-0.115793,1.511012,2.195928,0.330400,-0.093305,0.064744,-0.006903,-0.998213,-0.059348,0.005698,0.022216,0.020530,13.085342,-19.687866,23.234863,,,,,,
1484021055.468793,-0.129383,1.517594,2.209105,0.377793,0.022926,-0.045458,-0.006861,-0.998585,-0.052733,-0.014257,0.018101,0.030013,12.561295,-19.536499,23.608337,,,,,,
1484021055.488812,-0.159502,1.526757,2.239741,0.602311,-0.018569,-0.117853,-0.006992,-0.999030,-0.043466,-0.042095,0.041694,-0.032538,12.487396,-19.385315,24.282471,,,,,,
1484021055.508801,-0.143753,1.537029,2.222334,0.406549,-0.095672,-0.098192,-0.004836,-0.999430,-0.033412,-0.050126,0.058024,0.007381,12.487396,-19.385315,24.282471,,,,,,
1484021055.528821,-0.140379,1.543435,2.217419,0.141831,-0.059748,-0.122889,-0.003828,-0.999626,-0.027089,-0.016268,0.045036,0.024892,12.711349,-19.610535,24.433960,,,,,,
1484021055.548810,-0.008851,1.544892,2.084774,0.021509,-0.052220,-0.211861,-0.000229,-0.999664,-0.025900,-0.010192,0.076401,-0.003488,12.859467,-19.985718,24.436035,,,,,,
1484021055.568830,0.139596,1.545014,1.935559,0.015804,-0.040685,-0.116038,0.003587,-0.999668,-0.025529,0.006301,0.043537,0.003205,12.860886,-19.685913,24.284546,,,,,,
1484021055.588819,0.119833,1.544421,1.955121,-0.056768,0.012590,0.121963,0.003153,-0.999652,-0.026183,0.023611,0.025485,-0.000108,12.861115,-19.685242,24.734558,,,,,,
1484021055.608839,-0.008052,1.544416,2.084793,0.120799,0.144507,0.343632,-0.000212,-0.999652,-0.026377,0.039077,-0.020657,-0.015890,12.861115,-19.685242,24.734558,,,,,,
1484021055.628828,-0.275288,1.548126,2.355749,0.250847,0.194567,0.250547,-0.006162,-0.999743,-0.021815,0.028104,0.008944,-0.028646,13.160599,-19.761169,24.435364,,,,,,
1484021055.648846,-0.460579,1.550974,2.545514,0.197504,0.252624,0.112032,-0.008810,-0.999804,-0.017756,0.009161,0.029085,-0.004202,13.010544,-19.834900,25.110474,,,,,,
1484021055.668835,-0.673525,1.554516,2.765024,0.276133,0.318125,0.053791,-0.010154,-0.999867,-0.012724,0.015022,0.036336,-0.026369,12.335556,-19.907837,25.859802,,,,,,
1484021055.688855,-0.926997,1.556170,3.023856,0.170948,0.234337,0.119665,-0.011698,-0.999893,-0.008779,-0.027593,0.022308,-0.025919,12.709595,-20.132874,26.161499,,,,,,
1484021055.708844,-1.270649,1.552253,-2.915877,0.285550,-0.074878,0.359816,-0.017713,-0.999828,-0.005482,-0.010882,0.025173,-0.024135,12.709595,-20.132874,26.161499,,,,,,
1484021055.728863,-1.431675,1.550775,-2.752778,0.010252,0.250424,-0.400437,-0.019827,-0.999800,-0.002776,-0.223795,-0.874987,0.004043,12.782822,-20.507690,26.388489,,,,,,
1484021055.748853,-1.754736,1.558859,-2.428574,0.348514,0.102672,-0.438038,-0.011736,-0.999929,0.002183,-0.095411,-0.017314,-0.050645,12.557648,-20.581787,26.763550,,,,,,
1484021055.768872,-2.371537,1.564377,-1.808894,0.039016,0.212359,-0.297455,-0.004469,-0.999979,0.004609,-0.082170,-0.085149,0.049041,12.781250,-20.881775,26.990356,,,,,,
1484021055.788862,2.792202,1.566888,-0.685659,-0.056800,0.187104,-0.297394,0.001338,-0.999992,0.003672,-0.014796,-0.000786,0.001577,13.384094,-20.356995,27.438660,,,,,,
1484021055.808851,1.797517,1.564187,0.311259,-0.042612,0.023806,-0.363443,0.006440,-0.999978,0.001486,-0.038209,0.011804,-0.061605,13.384094,-20.356995,27.438660,,,,,,
1484021055.828871,1.620394,1.556792,0.488374,-0.044583,-0.005953,-0.344922,0.013986,-0.999902,0.000694,-0.001322,-0.003913,0.004036,14.057968,-20.509094,26.690430,,,,,,
1484021055.848860,1.470527,1.557785,0.635610,-0.143311,0.030949,0.117211,0.012946,-0.999915,-0.001302,0.129037,0.018211,0.088232,13.908325,-20.507874,27.365173,,,,,,
1484021055.868878,1.151612,1.557657,0.954751,-0.216181,0.002881,-0.057546,0.012001,-0.999914,-0.005348,-0.147606,0.040792,0.011558,14.282974,-20.509399,26.690735,,,,,,
1484021055.888867,0.880688,1.557304,1.225755,-0.112900,0.003723,0.002472,0.010405,-0.999909,-0.008589,-0.024138,0.001450,-0.043428,13.758942,-20.284180,26.388855,,,,,,
1484021055.908887,0.810508,1.556273,1.296017,-0.061710,0.002040,0.010107,0.010524,-0.999895,-0.010008,0.023122,-0.002440,-0.003542,13.758942,-20.284180,26.388855,,,,,,
1484021055.928876,0.728955,1.554884,1.377536,-0.120293,-0.005895,0.001512,0.010599,-0.999873,-0.011868,0.005850,0.000636,0.030652,14.510132,-20.060059,26.538818,,,,,,
1484021055.948895,0.624479,1.552635,1.481959,-0.150164,-0.004029,-0.001798,0.010618,-0.999835,-0.014733,-0.004178,-0.002545,0.005379,13.535568,-19.983459,26.612000,,,,,,
1484021055.968884,0.544235,1.550326,1.562128,-0.132042,-0.002810,-0.000696,0.010598,-0.999790,-0.017512,-0.006829,-0.000759,-0.008016,13.685959,-19.908569,26.686890,,,,,,
1484021055.988904,0.487702,1.548228,1.618652,-0.114985,-0.001599,-0.000663,0.010574,-0.999745,-0.019935,-0.005875,-0.000865,-0.005639,14.133789,-20.285156,26.089417,,,,,,
1484021056.008893,0.446204,1.546298,1.660146,-0.103257,-0.000434,-0.001712,0.010571,-0.999700,-0.022098,-0.003445,0.002843,-0.004254,14.133789,-20.285156,26.089417,,,,,,
1484021056.028913,0.414674,1.544524,1.691679,-0.094730,-0.000362,0.000445,0.010584,-0.999655,-0.024043,-0.003503,0.001623,-0.004186,13.909912,-20.059814,26.087952,,,,,,
1484021056.048902,0.389094,1.542861,1.717272,-0.088327,-0.000305,-0.000604,0.010596,-0.999610,-0.025844,-0.002143,-0.002206,-0.003682,14.133865,-20.284912,26.239380,,,,,,
1484021056.068922,0.357338,1.541254,1.749022,-0.086198,-0.000287,0.000469,0.010332,-0.999564,-0.027672,-0.004732,-0.001306,-0.001365,14.060333,-19.984924,26.162781,,,,,,
1484021056.088911,0.328501,1.539802,1.777863,-0.091516,-0.001394,-0.001664,0.009998,-0.999520,-0.029332,-0.002094,0.000740,0.003194,13.984406,-20.135376,25.788391,,,,,,
1484021056.108929,0.302404,1.538320,1.803948,-0.101125,-0.000418,-0.000637,0.009670,-0.999473,-0.030997,-0.004589,0.000648,0.003668,13.984406,-20.135376,25.788391,,,,,,
1484021056.128918,0.280739,1.536612,1.825601,-0.114986,-0.000538,-0.001741,0.009469,-0.999416,-0.032839,-0.002069,0.000987,0.003466,13.986404,-19.759888,26.086609,,,,,,
1484021056.148938,0.258436,1.534629,1.847912,-0.130987,-0.000679,-0.000718,0.009241,-0.999346,-0.034958,-0.003000,-0.000303,0.004700,13.835541,-19.910034,25.862061,,,,,,
1484021056.168927,0.235767,1.532247,1.870575,-0.155509,-0.001956,-0.000770,0.009002,-0.999257,-0.037474,-0.004593,-0.000834,0.005705,13.984924,-19.986084,25.337708,,,,,,
1484021056.188916,0.214703,1.529464,1.891642,-0.184313,-0.001146,-0.000863,0.008804,-0.999146,-0.040371,-0.003219,0.000641,0.008831,14.212234,-19.536194,25.485779,,,,,,
1484021056.208936,0.196719,1.526169,1.909630,-0.218445,-0.001446,0.000110,0.008720,-0.999004,-0.043752,-0.002494,0.001293,0.011724,14.212234,-19.536194,25.485779,,,,,,
1484021056.228925,0.177074,1.522127,1.929268,-0.262183,-0.000768,0.001043,0.008570,-0.998816,-0.047889,-0.000605,0.000372,0.012916,13.837021,-19.610168,25.785583,,,,,,
1484021056.248945,0.158906,1.517263,1.947419,-0.317628,-0.002313,-0.001229,0.008467,-0.998567,-0.052833,-0.001326,0.000780,0.017814,14.062119,-19.536255,25.260559,,,,,,
1484021056.268934,0.142219,1.511315,1.964114,-0.386963,-0.001859,-0.000367,0.008426,-0.998232,-0.058846,-0.000705,-0.000105,0.022194,14.063019,-19.311951,24.809509,,,,,,
1484021056.288954,0.125004,1.503958,1.981337,-0.474419,-0.002623,-0.000607,0.008327,-0.997767,-0.066267,-0.001522,-0.001363,0.027785,14.214706,-18.937805,24.432861,,,,,,
1484021056.308943,0.108606,1.494633,1.997855,-0.552481,0.025358,-0.002268,0.008248,-0.997101,-0.075642,-0.000984,-0.002441,0.022800,14.214706,-18.937805,24.432861,,,,,,
1484021056.328948,0.105740,1.493443,2.001369,-0.015840,0.002428,0.018771,0.008156,-0.997010,-0.076844,-0.012520,-0.004867,-0.024062,13.989212,-19.012695,24.207886,,,,,,
1484021056.348938,0.107137,1.493309,1.999945,0.007754,-0.007966,0.001911,0.008278,-0.996999,-0.076966,0.000527,0.002615,-0.058440,14.063766,-19.088074,24.058350,,,,,,
1484021056.368958,0.106985,1.493389,2.000091,-0.002957,-0.000625,-0.001417,0.008257,-0.997006,-0.076888,-0.001727,-0.000767,-0.001802,14.288849,-19.088135,24.208740,,,,,,
1484021056.388947,0.107105,1.493398,1.999986,0.001299,0.000473,-0.000353,0.008266,-0.997006,-0.076878,-0.002467,-0.000308,-0.006679,13.762756,-19.312317,24.283997,,,,,,
1484021056.408966,0.107321,1.493428,1.999783,0.002358,0.001544,-0.000364,0.008279,-0.997009,-0.076846,-0.002694,0.002898,-0.007840,13.762756,-19.312317,24.283997,,,,,,
1484021056.428955,0.107478,1.493469,1.999635,0.002366,0.000482,-0.000350,0.008287,-0.997012,-0.076805,-0.000383,0.001589,-0.008309,14.064178,-19.012939,24.132996,,,,,,
1484021056.448975,0.107519,1.493484,1.999593,0.001307,-0.000588,-0.000339,0.008288,-0.997013,-0.076789,0.000211,0.000446,-0.009224,14.063766,-19.088074,24.058350,,,,,,
1484021056.468964,0.107641,1.493503,1.999475,0.001220,-0.000592,0.000725,0.008296,-0.997014,-0.076769,0.000555,0.001333,-0.010068,14.214844,-18.863525,23.982483,,,,,,
1484021056.488983,0.107563,1.493523,1.999563,0.000154,-0.000601,0.000722,0.008287,-0.997016,-0.076750,0.000807,0.001700,-0.008165,13.989487,-18.938110,23.982483,,,,,,
1484021056.508972,0.107574,1.493553,1.999566,0.002279,0.000479,0.000713,0.008285,-0.997018,-0.076721,-0.000808,0.001916,-0.007691,13.989487,-18.938110,23.982483,,,,,,
1484021056.528961,0.106004,1.493063,2.001135,0.001222,-0.000591,-0.000342,0.008216,-0.996980,-0.077219,-0.001182,0.000642,-0.007909,13.914108,-19.012939,23.982727,,,,,,
1484021056.548980,0.104280,1.492662,2.002857,0.000150,-0.000601,0.000722,0.008125,-0.996949,-0.077631,-0.001457,-0.001266,-0.006323,14.138306,-19.163452,23.908813,,,,,,
1484021056.568969,0.103306,1.492330,2.003831,0.003363,-0.001632,-0.001388,0.008083,-0.996923,-0.077968,-0.000195,0.000204,-0.006565,13.989929,-18.862915,24.132141,,,,,,
1484021056.588989,0.101702,1.492040,2.005450,0.001210,0.000471,-0.000355,0.007988,-0.996900,-0.078269,-0.001503,0.002302,-0.005456,14.137604,-19.313354,23.984619,,,,,,
1484021056.608978,0.100645,1.491727,2.006507,-0.000925,0.000453,-0.000360,0.007936,-0.996876,-0.078587,0.000868,0.000980,-0.006450,14.137604,-19.313354,23.984619,,,,,,
1484021056.628998,0.100081,1.491459,2.007078,0.001207,0.000472,-0.000354,0.007919,-0.996854,-0.078857,-0.000991,-0.000460,-0.006088,14.214096,-19.013428,23.983215,,,,,,
1484021056.648987,0.098962,1.491298,2.008188,-0.000933,0.000451,0.001773,0.007846,-0.996842,-0.079026,-0.002216,0.002564,-0.006652,14.513733,-19.088867,23.984009,,,,,,
1484021056.669007,0.097677,1.491033,2.009472,0.001202,0.000471,0.000713,0.007770,-0.996821,-0.079299,-0.001316,-0.000677,-0.006044,14.138840,-19.087952,24.208496,,,,,,
1484021056.688996,0.096599,1.490770,2.010540,0.001212,-0.000590,-0.000339,0.007710,-0.996800,-0.079569,-0.000966,0.000767,-0.004263,14.288361,-19.163513,23.984070,,,,,,
1484021056.709015,0.095373,1.490567,2.011771,0.001203,0.000472,-0.000353,0.007632,-0.996783,-0.079779,-0.001300,0.000857,-0.004282,14.288361,-19.163513,23.984070,,,,,,
1484021056.729004,0.094027,1.490383,2.013111,0.001202,0.000472,-0.000353,0.007542,-0.996769,-0.079972,-0.001240,0.000232,-0.005172,14.736664,-19.464783,23.611267,,,,,,
1484021056.749024,0.093756,1.490186,2.013374,0.000146,-0.000597,-0.001408,0.007538,-0.996753,-0.080169,0.000274,0.000232,-0.004395,14.362976,-19.238647,23.984558,,,,,,
1484021056.769013,0.094286,1.489994,2.012849,0.001197,0.000471,0.000714,0.007599,-0.996737,-0.080356,0.001251,0.000781,-0.003155,14.063080,-19.237854,24.209167,,,,,,
1484021056.789032,0.094265,1.489855,2.012862,0.001203,0.000474,-0.001420,0.007610,-0.996726,-0.080494,0.000507,-0.000497,-0.003444,14.139587,-18.937988,24.207764,,,,,,
1484021056.809021,0.094342,1.489722,2.012793,0.002284,-0.001640,-0.001388,0.007629,-0.996715,-0.080626,0.001450,0.000835,-0.004198,14.139587,-18.937988,24.207764,,,,,,
1484021056.829041,0.093785,1.489578,2.013341,0.001206,-0.000589,-0.000339,0.007598,-0.996704,-0.080773,-0.000258,0.001266,-0.004249,14.512848,-19.239197,23.759827,,,,,,
1484021056.849030,0.092878,1.489441,2.014237,0.001206,-0.000589,-0.000338,0.007537,-0.996692,-0.080916,0.000260,0.000751,-0.004030,14.588455,-19.163635,24.209534,,,,,,
1484021056.869049,0.092022,1.489328,2.015090,0.001205,-0.000589,-0.000338,0.007478,-0.996683,-0.081034,-0.001451,0.000300,-0.003469,14.139633,-18.937866,24.282715,,,,,,
1484021056.889038,0.091580,1.489179,2.015533,-0.000944,0.001516,-0.000372,0.007456,-0.996671,-0.081185,-0.000009,-0.000536,-0.003380,14.063965,-19.087524,24.433350,,,,,,
1484021056.909027,0.090877,1.489096,2.016241,0.000133,0.000465,-0.001421,0.007406,-0.996664,-0.081273,-0.003286,0.000784,-0.003154,14.063965,-19.087524,24.433350,,,,,,
1484021056.929047,0.090019,1.488969,2.017095,0.001196,0.000473,-0.000352,0.007348,-0.996654,-0.081405,-0.001000,0.000240,-0.004074,13.838226,-19.163147,23.758423,,,,,,
1484021056.949036,0.089298,1.488878,2.017817,0.001198,0.000474,-0.001418,0.007297,-0.996647,-0.081500,-0.000919,-0.000714,-0.003720,14.286865,-19.463501,23.985596,,,,,,
1484021056.969055,0.088820,1.488799,2.018311,0.000131,0.000465,-0.001421,0.007265,-0.996640,-0.081582,-0.001452,0.001935,-0.002753,14.064514,-18.938110,24.057617,,,,,,
1484021056.989043,0.088362,1.488671,2.018772,0.004394,0.000501,-0.000342,0.007239,-0.996630,-0.081713,-0.000876,0.000017,-0.004988,14.289139,-19.013367,24.058350,,,,,,
1484021057.009063,0.088041,1.488593,2.019107,-0.000940,0.000455,-0.000357,0.007220,-0.996623,-0.081793,-0.001009,-0.001439,-0.001291,14.289139,-19.013367,24.058350,,,,,,
1484021057.029052,0.087555,1.488502,2.019588,0.000130,0.000465,-0.001420,0.007188,-0.996616,-0.081887,-0.002229,0.000232,-0.002540,13.988663,-19.088257,23.833252,,,,,,
1484021057.049072,0.087403,1.488433,2.019760,0.001190,0.000473,0.000716,0.007181,-0.996610,-0.081956,0.000433,-0.000308,-0.001891,13.838837,-19.087463,24.208069,,,,,,
1484021057.069061,0.087167,1.488375,2.020010,0.002259,0.000483,-0.000348,0.007167,-0.996605,-0.082016,-0.000408,0.001458,-0.003113,13.688843,-19.087280,24.207825,,,,,,
1484021057.089081,0.087036,1.488317,2.020148,0.000125,0.000465,-0.000354,0.007161,-0.996601,-0.082074,-0.001363,0.000705,-0.002414,13.763611,-19.088074,23.757935,,,,,,
1484021057.109070,0.086782,1.488252,2.020431,0.000117,0.001526,-0.000368,0.007146,-0.996595,-0.082141,0.000056,0.001432,-0.002805,13.763611,-19.088074,23.757935,,,,,,
1484021057.129090,0.086235,1.488214,2.020985,0.000132,-0.000597,-0.000339,0.007105,-0.996592,-0.082182,-0.001215,-0.000341,-0.001085,13.838348,-19.162842,23.983398,,,,,,
1484021057.149079,0.085837,1.488141,2.021365,0.001199,-0.000588,-0.000336,0.007078,-0.996586,-0.082257,-0.000608,-0.000118,-0.002399,13.837555,-19.312988,23.909119,,,,,,
1484021057.169098,0.085887,1.488063,2.021318,0.000128,-0.000598,0.000728,0.007089,-0.996580,-0.082335,0.000571,0.001005,-0.002825,13.838074,-19.237488,24.208801,,,,,,
1484021057.189087,0.085572,1.488000,2.021630,0.001198,-0.000587,-0.000336,0.007068,-0.996574,-0.082399,-0.000736,-0.000938,-0.003157,14.286743,-19.463806,23.760620,,,,,,
1484021057.209107,0.084974,1.487929,2.022229,0.001197,-0.000587,-0.000336,0.007025,-0.996569,-0.082474,-0.001211,0.000139,-0.002731,14.286743,-19.463806,23.760620,,,,,,
1484021057.229096,0.085080,1.487868,2.022122,0.002256,0.000484,-0.000347,0.007039,-0.996563,-0.082533,-0.000417,-0.000537,-0.002519,14.288666,-19.088684,23.833740,,,,,,
1484021057.249115,0.084903,1.487809,2.022307,0.001178,0.001535,0.000703,0.007029,-0.996559,-0.082593,-0.002360,0.000633,-0.001696,14.214355,-18.938782,23.757874,,,,,,
1484021057.269104,0.085089,1.487760,2.022136,0.002255,0.000484,-0.000347,0.007049,-0.996554,-0.082641,-0.001067,0.001208,-0.002045,13.988846,-19.087708,24.208252,,,,,,
1484021057.289093,0.084634,1.487721,2.022593,0.000126,-0.000597,0.000728,0.007015,-0.996551,-0.082683,-0.001491,0.000992,-0.001927,14.139511,-18.938232,24.057739,,,,,,
1484021057.309113,0.084474,1.487636,2.022768,0.001196,-0.000587,-0.000336,0.007008,-0.996544,-0.082768,-0.001683,0.002129,-0.002055,14.139511,-18.938232,24.057739,,,,,,
1484021057.329109,0.084795,1.487582,2.022446,0.001188,0.000475,-0.000350,0.007040,-0.996540,-0.082820,-0.000402,0.000537,-0.001272,14.513504,-19.163391,24.284424,,,,,,
1484021057.349128,0.084667,1.487522,2.022573,0.001190,0.000476,-0.001417,0.007034,-0.996535,-0.082880,0.000107,-0.000246,-0.002141,14.064209,-19.012817,24.208008,,,,,,
1484021057.369117,0.084794,1.487502,2.022461,-0.000957,0.001517,0.000697,0.007046,-0.996533,-0.082899,0.000202,0.000592,-0.001726,14.137146,-19.388489,23.835022,,,,,,
1484021057.389137,0.084395,1.487448,2.022874,0.002242,0.001545,0.000705,0.007018,-0.996529,-0.082956,-0.000975,-0.001122,-0.001990,14.138046,-19.238098,24.134216,,,,,,
1484021057.409126,0.083767,1.487384,2.023515,0.001175,0.001536,0.000703,0.006971,-0.996523,-0.083023,-0.000684,-0.000471,-0.002502,14.138046,-19.238098,24.134216,,,,,,
1484021057.429145,0.083519,1.487361,2.023772,0.000123,0.000467,-0.001419,0.006952,-0.996521,-0.083048,-0.000879,-0.000168,-0.001043,13.838959,-19.087158,24.433044,,,,,,
1484021057.449134,0.083729,1.487323,2.023581,0.001189,0.000476,-0.001416,0.006973,-0.996518,-0.083084,0.000550,0.002973,-0.001846,13.764130,-19.012634,24.057556,,,,,,
1484021057.469154,0.084024,1.487284,2.023275,0.001103,-0.000589,-0.000340,0.007001,-0.996515,-0.083121,0.000858,0.000635,-0.001672,14.438690,-19.088867,23.908936,,,,,,
1484021057.489143,0.084237,1.487257,2.023076,0.002158,0.000481,0.000715,0.007021,-0.996513,-0.083146,0.000944,-0.000253,-0.001342,14.213608,-19.088745,23.758606,,,,,,
1484021057.509162,0.083975,1.487265,2.023347,0.003233,-0.000571,0.000733,0.006998,-0.996513,-0.083141,-0.000986,0.001015,0.000087,14.213608,-19.088745,23.758606,,,,,,
1484021057.529151,0.083789,1.487244,2.023543,0.000028,0.000464,-0.000357,0.006984,-0.996512,-0.083162,0.000370,-0.000009,-0.000791,13.912766,-19.312500,24.284241,,,,,,
1484021057.549171,0.084029,1.487177,2.023314,0.001083,0.001534,0.000698,0.007010,-0.996506,-0.083227,0.000055,0.001053,-0.002070,14.063736,-19.088196,23.983337,,,,,,
1484021057.569160,0.084405,1.487121,2.022964,0.001083,0.001534,0.000698,0.007046,-0.996501,-0.083280,0.000110,0.001033,-0.001864,14.213425,-19.163208,24.133972,,,,,,
1484021057.589180,0.084510,1.487134,2.022851,0.001105,-0.000587,-0.001407,0.007054,-0.996502,-0.083266,0.000194,0.000943,-0.000322,13.913437,-19.162720,24.133545,,,,,,
1484021057.609169,0.084354,1.487089,2.023006,0.001097,0.000475,-0.001421,0.007044,-0.996499,-0.083312,-0.000773,0.001198,-0.001832,13.913437,-19.162720,24.133545,,,,,,
1484021057.629188,0.084638,1.487071,2.022720,0.001101,-0.000588,-0.000340,0.007070,-0.996497,-0.083329,0.000499,0.000327,-0.001419,13.839020,-19.013000,23.832703,,,,,,
1484021057.649177,0.084339,1.487037,2.023032,0.001085,0.001535,-0.000368,0.007048,-0.996494,-0.083364,-0.000456,-0.002194,-0.002589,14.289368,-18.938843,23.757996,,,,,,
1484021057.669166,0.083770,1.487014,2.023604,-0.000044,0.000462,0.001773,0.007002,-0.996492,-0.083391,-0.000029,0.000490,-0.000792,14.137924,-19.238464,23.909180,,,,,,
1484021057.689186,0.083313,1.486962,2.024052,0.001037,-0.000588,-0.000342,0.006968,-0.996488,-0.083446,-0.001429,0.000364,-0.001561,13.764664,-18.937256,24.357178,,,,,,
1484021057.709175,0.083386,1.486913,2.024004,-0.000053,0.002587,-0.000388,0.006978,-0.996484,-0.083494,-0.000661,0.000482,-0.001879,13.764664,-18.937256,24.357178,,,,,,
1484021057.729194,0.083498,1.486900,2.023912,0.002087,0.001544,-0.000368,0.006989,-0.996483,-0.083506,-0.000046,0.001884,-0.001302,14.062531,-19.313416,23.834534,,,,,,
1484021057.749183,0.083025,1.486879,2.024402,0.002084,0.001543,0.000699,0.006951,-0.996481,-0.083530,-0.001260,0.000601,-0.001355,14.062225,-19.388184,23.984863,,,,,,
1484021057.769203,0.083244,1.486868,2.024209,0.001028,0.000474,-0.000357,0.006970,-0.996480,-0.083540,0.001300,-0.000026,-0.000628,14.287979,-19.238525,23.984436,,,,,,
1484021057.789192,0.083008,1.486867,2.024454,0.001031,0.000475,-0.001423,0.006951,-0.996480,-0.083542,-0.001045,-0.000651,-0.000275,13.613983,-19.012817,23.757324,,,,,,
1484021057.809211,0.082928,1.486858,2.024543,-0.000049,0.001525,0.000693,0.006945,-0.996479,-0.083551,0.000410,0.000569,-0.000311,13.613983,-19.012817,23.757324,,,,,,
1484021057.829200,0.083008,1.486841,2.024462,0.001002,0.000482,-0.000356,0.006953,-0.996478,-0.083568,0.000310,0.000170,-0.000920,13.839203,-19.012451,24.207703,,,,,,
1484021057.849220,0.083572,1.486820,2.023902,0.001005,0.000483,-0.001423,0.007002,-0.996476,-0.083585,0.001406,0.000855,-0.000705,14.288742,-19.088501,23.983704,,,,,,
1484021057.869209,0.083746,1.486768,2.023733,-0.001132,0.000463,-0.000363,0.007021,-0.996472,-0.083635,0.000853,-0.000583,-0.001249,13.987564,-19.313232,23.909363,,,,,,
1484021057.889228,0.083404,1.486775,2.024087,0.001002,0.000482,-0.000357,0.006991,-0.996472,-0.083631,-0.001285,0.000150,-0.000018,14.288742,-19.088501,23.983704,,,,,,
1484021057.909217,0.082956,1.486754,2.024550,-0.001135,0.000462,0.000704,0.006956,-0.996471,-0.083655,-0.000974,-0.000981,-0.000833,14.288742,-19.088501,23.983704,,,,,,
1484021057.929237,0.083224,1.486725,2.024281,0.002065,0.000491,0.000713,0.006981,-0.996468,-0.083682,0.001473,0.000527,-0.001798,14.138123,-19.164001,23.533813,,,,,,
1484021057.949226,0.082973,1.486707,2.024530,0.002068,0.000492,-0.000354,0.006961,-0.996467,-0.083701,0.001096,-0.000543,-0.000741,13.763733,-19.087769,23.982910,,,,,,
1484021057.969245,0.083098,1.486721,2.024409,-0.000066,0.000473,-0.000359,0.006970,-0.996468,-0.083686,-0.000806,0.000359,-0.000359,13.463150,-19.236755,24.358215,,,,,,
1484021057.989234,0.083066,1.486694,2.024461,0.000972,0.001556,0.000697,0.006970,-0.996465,-0.083714,0.000568,0.001119,-0.000332,13.988693,-19.088196,23.908203,,,,,,
1484021058.009254,0.082624,1.486685,2.024906,0.000990,-0.000566,-0.000341,0.006933,-0.996465,-0.083725,-0.000769,-0.000621,-0.001129,13.988693,-19.088196,23.908203,,,,,,
1484021058.029243,0.082573,1.486688,2.024972,-0.000095,0.001547,0.000695,0.006929,-0.996465,-0.083723,-0.000429,0.000661,-0.000704,14.287460,-19.313965,23.684814,,,,,,
1484021058.049232,0.082942,1.486715,2.024613,0.003119,0.000515,-0.001416,0.006958,-0.996467,-0.083693,-0.000091,0.000633,0.000579,14.211853,-19.463440,23.985474,,,,,,
1484021058.069252,0.082842,1.486726,2.024717,0.000990,-0.000566,-0.000341,0.006948,-0.996468,-0.083684,0.000101,-0.000297,-0.001201,13.837708,-19.312500,24.209167,,,,,,
1484021058.089241,0.083341,1.486746,2.024223,0.002049,0.000505,-0.000352,0.006988,-0.996470,-0.083660,0.000397,-0.000723,-0.000416,13.986481,-19.538086,23.985474,,,,,,
1484021058.109260,0.083709,1.486743,2.023860,0.000983,0.000496,-0.000355,0.007020,-0.996470,-0.083660,0.000106,-0.003073,-0.000171,13.986481,-19.538086,23.985474,,,,,,
1484021058.129249,0.083218,1.486735,2.024345,0.000990,-0.000566,-0.000341,0.006979,-0.996469,-0.083671,-0.000509,-0.001135,-0.001381,14.212601,-19.313477,23.984680,,,,,,
1484021058.149269,0.083200,1.486728,2.024355,0.002066,-0.002663,-0.001374,0.006978,-0.996468,-0.083679,-0.000127,-0.000434,-0.001160,14.287491,-19.313843,23.759827,,,,,,
1484021058.169258,0.083264,1.486710,2.024286,-0.001152,-0.000569,-0.000344,0.006985,-0.996467,-0.083696,0.000522,-0.001168,-0.000685,13.913620,-19.088257,23.758179,,,,,,
1484021058.189277,0.083352,1.486708,2.024212,-0.000090,0.000503,-0.001422,0.006993,-0.996467,-0.083698,-0.000370,0.000541,-0.001553,14.212479,-19.313782,23.759705,,,,,,
1484021058.209266,0.082751,1.486697,2.024816,0.000970,0.000511,0.000714,0.006943,-0.996466,-0.083713,-0.001557,0.000204,-0.000790,14.212479,-19.313782,23.759705,,,,,,
1484021058.229286,0.082757,1.486663,2.024835,0.000976,0.000513,-0.001419,0.006946,-0.996463,-0.083747,0.000637,0.002841,-0.000756,14.138199,-19.163757,23.683838,,,,,,
1484021058.249275,0.082949,1.486631,2.024642,0.000983,-0.000549,-0.001405,0.006965,-0.996460,-0.083777,-0.001228,0.000824,-0.001977,14.062790,-19.312683,24.359497,,,,,,
1484021058.269294,0.082619,1.486617,2.024982,-0.000113,0.002625,0.000683,0.006939,-0.996459,-0.083793,-0.000042,-0.001008,-0.000817,14.062683,-19.312988,24.134521,,,,,,
1484021058.289283,0.082049,1.486576,2.025560,0.002028,0.001582,0.000703,0.006894,-0.996456,-0.083838,-0.001081,-0.000554,-0.001413,14.439774,-18.864014,23.832825,,,,,,
1484021058.309303,0.082070,1.486542,2.025559,-0.000105,0.001581,-0.000366,0.006899,-0.996453,-0.083872,-0.000170,0.001656,-0.000708,14.439774,-18.864014,23.832825,,,,,,
1484021058.329264,0.081777,1.486534,2.025855,-0.000101,0.000519,0.000715,0.006875,-0.996452,-0.083882,-0.000771,0.000221,-0.001674,14.437607,-19.313782,23.985046,,,,,,
1484021058.349283,0.081521,1.486537,2.026115,0.002035,0.000538,-0.000346,0.006853,-0.996452,-0.083880,-0.001574,-0.000069,-0.000181,14.062561,-19.313354,23.909485,,,,,,
1484021058.369272,0.081285,1.486515,2.026350,-0.000095,0.000521,-0.001418,0.006835,-0.996450,-0.083904,-0.000167,-0.001825,-0.000599,14.213806,-19.088196,24.133606,,,,,,
1484021058.389292,0.081862,1.486518,2.025785,0.000961,0.001591,-0.000363,0.006883,-0.996451,-0.083896,0.001494,0.000235,0.000034,14.663696,-19.089233,23.909241,,,,,,
1484021058.409281,0.081923,1.486538,2.025735,0.002038,0.000540,-0.001413,0.006887,-0.996452,-0.083876,-0.000066,0.000404,-0.000383,14.663696,-19.089233,23.909241,,,,,,
1484021058.429270,0.082090,1.486551,2.025562,0.000976,-0.000532,-0.000335,0.006900,-0.996453,-0.083862,0.000104,0.000863,-0.000580,14.513733,-19.088867,23.984009,,,,,,
1484021058.449289,0.082136,1.486552,2.025509,0.000968,0.000529,-0.000349,0.006903,-0.996454,-0.083861,-0.000724,-0.001639,-0.000780,14.662979,-19.239136,23.984985,,,,,,
1484021058.469278,0.082407,1.486520,2.025254,-0.000110,0.001598,0.000704,0.006929,-0.996451,-0.083891,-0.000535,0.001318,-0.001208,14.438843,-19.088379,24.208984,,,,,,
1484021058.489298,0.082782,1.486501,2.024880,0.002034,0.000556,-0.000343,0.006962,-0.996449,-0.083907,0.000957,-0.000041,-0.001390,14.063080,-19.237854,24.209167,,,,,,
1484021058.509287,0.082331,1.486511,2.025341,0.002034,0.000556,-0.000343,0.006923,-0.996450,-0.083901,-0.000881,-0.000010,-0.000221,14.063080,-19.237854,24.209167,,,,,,
1484021058.529307,0.082270,1.486521,2.025401,0.002042,-0.000505,-0.000329,0.006917,-0.996451,-0.083891,-0.000875,0.000083,-0.001070,13.987686,-19.312866,24.134399,,,,,,
1484021058.549296,0.082298,1.486508,2.025384,0.000975,-0.000515,-0.000332,0.006921,-0.996450,-0.083903,-0.000421,0.000875,-0.001195,14.513840,-19.088501,24.209045,,,,,,
1484021058.569315,0.082270,1.486487,2.025428,0.000964,0.000546,0.000721,0.006920,-0.996448,-0.083924,-0.000786,-0.000088,-0.001907,14.662857,-19.239441,23.760010,,,,,,
1484021058.589304,0.081927,1.486494,2.025776,0.000956,0.001608,0.000707,0.006891,-0.996449,-0.083921,-0.000894,0.001225,0.000272,14.288467,-19.163147,24.209106,,,,,,
1484021058.609324,0.081847,1.486511,2.025860,0.002031,0.000555,0.000724,0.006883,-0.996450,-0.083904,-0.001542,-0.000636,-0.000645,14.288467,-19.163147,24.209106,,,,,,
1484021058.629313,0.081379,1.486490,2.026327,0.002034,0.000573,-0.000339,0.006845,-0.996448,-0.083928,-0.001489,-0.000683,-0.001476,14.138229,-19.237549,24.509216,,,,,,
1484021058.649332,0.081459,1.486467,2.026269,-0.000099,0.000555,-0.000345,0.006854,-0.996446,-0.083950,0.000577,0.000536,-0.000798,14.362686,-19.313416,24.134949,,,,,,
1484021058.669321,0.081572,1.486442,2.026176,-0.000104,0.001617,-0.001426,0.006865,-0.996444,-0.083975,0.000154,-0.000367,-0.000330,14.286713,-19.463928,23.685608,,,,,,
1484021058.689341,0.081336,1.486423,2.026427,0.002026,0.001635,-0.000353,0.006847,-0.996443,-0.083995,-0.001186,0.000502,-0.000814,14.288391,-19.163391,24.059082,,,,,,
1484021058.709330,0.081229,1.486471,2.026530,0.002031,0.000572,0.000728,0.006834,-0.996447,-0.083948,-0.000486,0.002260,0.000558,14.288391,-19.163391,24.059082,,,,,,
1484021058.729349,0.080804,1.486462,2.026954,0.000975,-0.000497,-0.000328,0.006799,-0.996446,-0.083959,-0.000589,-0.001021,-0.000834,13.913925,-19.087402,24.358154,,,,,,
1484021058.749338,0.080668,1.486474,2.027090,0.000975,-0.000497,-0.000328,0.006787,-0.996447,-0.083949,-0.000103,0.000384,-0.000265,14.063080,-19.237854,24.209167,,,,,,
1484021058.769358,0.080836,1.486465,2.026918,-0.000076,-0.002630,-0.000302,0.006801,-0.996446,-0.083956,0.000599,-0.000990,-0.000349,14.062531,-19.313416,23.834534,,,,,,
1484021058.789347,0.080690,1.486441,2.027065,0.000965,0.000579,0.000728,0.006791,-0.996444,-0.083981,-0.000032,0.000152,-0.001453,13.838150,-19.237305,24.358765,,,,,,
1484021058.809336,0.081019,1.486445,2.026753,0.002046,-0.000471,-0.001388,0.006819,-0.996445,-0.083975,-0.000334,0.000458,-0.000680,13.838150,-19.237305,24.358765,,,,,,
1484021058.829355,0.080766,1.486393,2.027017,0.000965,0.000580,0.000728,0.006801,-0.996440,-0.084028,-0.001735,0.001598,-0.001635,13.987076,-19.388489,23.684753,,,,,,
1484021058.849344,0.080253,1.486405,2.027541,0.000965,0.000580,0.000728,0.006757,-0.996441,-0.084020,-0.001859,0.002270,-0.001429,14.363815,-19.088379,24.133850,,,,,,
1484021058.869364,0.079953,1.486406,2.027863,0.002031,0.000589,0.000731,0.006732,-0.996441,-0.084021,-0.001071,0.000088,-0.000024,13.987152,-19.388245,23.834778,,,,,,
1484021058.889353,0.080023,1.486385,2.027798,0.000957,0.001641,0.000714,0.006740,-0.996440,-0.084041,-0.000438,0.001307,-0.001423,13.838730,-19.087830,23.983032,,,,,,
1484021058.909372,0.080065,1.486383,2.027763,0.000968,0.000581,-0.000338,0.006743,-0.996439,-0.084043,-0.000045,0.000788,0.000074,13.838730,-19.087830,23.983032,,,,,,
1484021058.929361,0.080285,1.486372,2.027549,-0.000099,0.000572,-0.000341,0.006763,-0.996438,-0.084053,0.000012,-0.000876,-0.000862,14.213760,-19.088318,24.058594,,,,,,
1484021058.949381,0.080486,1.486379,2.027360,0.000973,0.000597,-0.001401,0.006779,-0.996439,-0.084044,-0.000462,-0.001120,-0.000078,14.287537,-19.313721,23.834839,,,,,,
1484021058.969370,0.080469,1.486344,2.027378,-0.000090,-0.000475,-0.000323,0.006780,-0.996436,-0.084079,-0.000509,0.000083,-0.000546,14.288132,-19.238037,24.284424,,,,,,
1484021058.989390,0.080513,1.486350,2.027333,0.000980,-0.000464,-0.001387,0.006784,-0.996437,-0.084072,-0.000192,-0.000878,0.000637,14.213882,-19.087952,24.283569,,,,,,
1484021059.009379,0.080690,1.486389,2.027162,0.003107,-0.000448,0.000752,0.006795,-0.996440,-0.084033,-0.000158,0.000285,0.000323,14.213882,-19.087952,24.283569,,,,,,
1484021059.029398,0.080554,1.486379,2.027316,-0.000097,0.000587,-0.000337,0.006785,-0.996439,-0.084044,-0.000361,-0.000570,0.000044,13.837296,-19.387573,24.134521,,,,,,
1484021059.049387,0.080945,1.486360,2.026932,0.000972,0.000597,-0.001401,0.006819,-0.996437,-0.084060,0.000200,0.001457,-0.000840,14.212708,-19.313110,24.209717,,,,,,
1484021059.069407,0.081234,1.486359,2.026655,0.000969,0.000596,-0.000335,0.006844,-0.996437,-0.084059,-0.000389,-0.000969,-0.001543,14.063766,-19.088074,24.058350,,,,,,
1484021059.089396,0.081378,1.486358,2.026517,-0.000094,0.000588,-0.001404,0.006856,-0.996437,-0.084059,0.000942,-0.000877,-0.000277,14.288895,-19.088013,24.283691,,,,,,
1484021059.109415,0.081384,1.486387,2.026516,0.002044,-0.000442,-0.000313,0.006854,-0.996440,-0.084030,-0.001025,0.000987,-0.001160,14.288895,-19.088013,24.283691,,,,,,
1484021059.129404,0.082083,1.486364,2.025825,0.000978,-0.000451,-0.000317,0.006915,-0.996438,-0.084048,0.001371,0.000252,-0.001370,14.736740,-19.464539,23.761292,,,,,,
1484021059.149424,0.082424,1.486382,2.025503,0.000981,-0.000450,-0.001383,0.006942,-0.996439,-0.084028,0.001237,0.000315,0.001188,13.911438,-19.538086,23.910339,,,,,,
1484021059.169413,0.081877,1.486360,2.026049,0.000967,0.000610,0.000736,0.006897,-0.996437,-0.084053,-0.001069,0.000161,-0.001777,13.911438,-19.538086,23.910339,,,,,,
1484021059.189432,0.081877,1.486370,2.026066,0.002036,0.000620,-0.000328,0.006897,-0.996438,-0.084044,0.000702,-0.000083,-0.000887,14.437637,-19.313660,24.060059,,,,,,
1484021059.209421,0.082281,1.486353,2.025685,0.002036,0.000620,-0.000328,0.006932,-0.996437,-0.084058,0.002055,0.000023,-0.000369,14.437637,-19.313660,24.060059,,,,,,
1484021059.229410,0.082497,1.486323,2.025493,-0.000102,0.001664,-0.001415,0.006953,-0.996434,-0.084086,0.000250,0.000112,-0.001089,14.137070,-19.388733,23.684998,,,,,,
1484021059.249430,0.082621,1.486313,2.025375,0.002044,-0.000441,-0.000314,0.006964,-0.996433,-0.084095,0.000574,-0.001736,-0.000606,14.437531,-19.313965,23.835083,,,,,,
1484021059.269419,0.082690,1.486312,2.025328,0.002043,0.000635,-0.002457,0.006970,-0.996433,-0.084096,-0.001324,-0.001690,-0.001567,14.137680,-19.313110,24.134644,,,,,,
1484021059.289438,0.082666,1.486276,2.025374,-0.000094,0.000615,-0.001396,0.006971,-0.996430,-0.084132,-0.000425,0.000657,-0.001516,14.062683,-19.312988,24.134521,,,,,,
1484021059.309427,0.082768,1.486275,2.025284,0.002041,-0.000430,0.000757,0.006979,-0.996430,-0.084132,-0.000449,0.000428,-0.000127,14.062683,-19.312988,24.134521,,,,,,
1484021059.329451,0.082792,1.486283,2.025266,0.000988,-0.001498,-0.001365,0.006981,-0.996431,-0.084124,-0.000557,0.001955,0.000323,13.837708,-19.312500,24.209167,,,,,,
1484021059.349440,0.082728,1.486275,2.025342,0.000969,0.000624,-0.000327,0.006976,-0.996430,-0.084132,-0.001010,0.001023,-0.000890,13.838608,-19.088135,23.758057,,,,,,
1484021059.369459,0.082509,1.486303,2.025578,0.000969,0.000624,-0.000327,0.006955,-0.996433,-0.084105,-0.001874,-0.000729,-0.000321,13.687225,-19.387634,23.984314,,,,,,
1484021059.389449,0.082173,1.486297,2.025923,0.002036,0.000633,-0.000324,0.006928,-0.996432,-0.084114,-0.000259,-0.000852,-0.000512,14.287460,-19.313965,23.684814,,,,,,
1484021059.409468,0.082109,1.486295,2.025988,-0.001164,0.000605,-0.000332,0.006922,-0.996432,-0.084117,-0.000193,0.002551,-0.000722,14.287460,-19.313965,23.684814,,,,,,
1484021059.429457,0.081728,1.486275,2.026379,-0.000090,-0.000436,-0.000312,0.006892,-0.996430,-0.084139,-0.002131,0.001359,0.000093,14.063004,-19.238098,24.059143,,,,,,
1484021059.449477,0.081428,1.486254,2.026676,-0.000101,0.000625,0.000741,0.006868,-0.996428,-0.084161,0.000853,0.001632,-0.000250,13.687607,-19.312683,23.983887,,,,,,
1484021059.469466,0.080988,1.486229,2.027105,0.000984,-0.001488,-0.000294,0.006833,-0.996426,-0.084190,-0.001859,0.002087,-0.000618,14.513000,-19.238770,24.059814,,,,,,
1484021059.489485,0.080802,1.486259,2.027286,0.003113,-0.000407,-0.001369,0.006815,-0.996429,-0.084161,-0.001566,0.000091,-0.000495,14.362976,-19.238647,23.984558,,,,,,
1484021059.509474,0.080713,1.486239,2.027403,-0.000093,-0.000437,0.000755,0.006809,-0.996427,-0.084182,0.000789,0.000913,-0.000733,14.362976,-19.238647,23.984558,,,,,,
1484021059.529494,0.080988,1.486203,2.027147,0.000976,-0.000426,-0.000308,0.006835,-0.996424,-0.084216,-0.000396,0.000300,-0.001188,14.363358,-19.163635,23.984192,,,,,,
1484021059.549483,0.080907,1.486209,2.027222,0.002043,-0.000417,-0.000305,0.006828,-0.996425,-0.084210,-0.000602,0.001170,0.000012,14.212143,-19.388611,23.835144,,,,,,
1484021059.569502,0.081174,1.486230,2.026969,0.002032,0.000644,0.000747,0.006849,-0.996426,-0.084187,0.000582,0.000974,-0.001048,14.513733,-19.088867,23.984009,,,,,,
1484021059.589491,0.080708,1.486230,2.027435,0.000968,0.000645,-0.000319,0.006810,-0.996426,-0.084191,-0.001805,0.000302,-0.000816,14.287613,-19.313538,23.984802,,,,,,
1484021059.609480,0.080444,1.486265,2.027705,-0.000102,0.000635,0.000745,0.006785,-0.996429,-0.084157,-0.001261,-0.000519,0.000554,14.287613,-19.313538,23.984802,,,,,,
1484021059.629500,0.079899,1.486267,2.028261,0.000968,0.000645,-0.000319,0.006739,-0.996430,-0.084160,-0.001551,0.000412,-0.001015,13.763351,-19.162781,23.983276,,,,,,
1484021059.649489,0.079775,1.486267,2.028382,-0.000094,-0.000426,0.000759,0.006728,-0.996430,-0.084160,0.000367,-0.000595,0.000206,13.688354,-19.162659,23.983154,,,,,,
1484021059.669508,0.079298,1.486277,2.028876,0.002023,0.001715,0.000737,0.006687,-0.996430,-0.084154,-0.000111,0.000199,-0.000487,13.987854,-19.238403,23.759033,,,,,,
1484021059.689497,0.079361,1.486255,2.028805,0.000986,-0.001476,-0.001357,0.006694,-0.996428,-0.084175,0.000065,0.000625,-0.001335,14.287613,-19.313538,23.984802,,,,,,
1484021059.709517,0.079278,1.486263,2.028900,0.000972,-0.000417,0.000762,0.006687,-0.996429,-0.084168,-0.001911,-0.000855,-0.000579,14.287613,-19.313538,23.984802,,,,,,
1484021059.729506,0.079235,1.486278,2.028951,0.000960,0.001707,-0.000333,0.006682,-0.996430,-0.084153,-0.000975,0.000306,0.000093,13.836548,-19.537598,24.135315,,,,,,
1484021059.749525,0.079010,1.486279,2.029188,-0.000101,0.000645,-0.000318,0.006663,-0.996431,-0.084153,-0.001154,-0.000289,-0.001663,14.362106,-19.388916,23.760315,,,,,,
1484021059.769514,0.078901,1.486273,2.029302,0.000977,-0.000406,-0.001368,0.006654,-0.996430,-0.084161,-0.001039,-0.000472,-0.001151,14.060608,-19.688538,23.761353,,,,,,
1484021059.789534,0.078790,1.486252,2.029435,0.002010,0.002784,0.001793,0.006646,-0.996428,-0.084181,-0.000558,0.000075,-0.000551,14.212555,-19.313599,23.909668,,,,,,
1484021059.809523,0.078189,1.486249,2.030053,0.000958,0.001716,-0.000329,0.006596,-0.996428,-0.084189,-0.001301,-0.000932,-0.001306,14.212555,-19.313599,23.909668,,,,,,
1484021059.829542,0.078155,1.486270,2.030114,0.002024,0.001725,-0.000326,0.006592,-0.996430,-0.084168,0.000321,0.000916,-0.000641,13.838577,-19.162170,24.433411,,,,,,
1484021059.849532,0.077808,1.486276,2.030468,-0.000086,-0.001478,-0.000290,0.006562,-0.996430,-0.084165,0.000137,-0.000167,-0.000903,13.986862,-19.463074,23.985107,,,,,,
1484021059.869551,0.077306,1.486247,2.030985,-0.000105,0.000644,0.000749,0.006522,-0.996428,-0.084196,-0.000846,-0.000185,-0.001619,13.762558,-19.312927,23.908997,,,,,,
1484021059.889540,0.077263,1.486202,2.031056,0.000957,0.001716,-0.000329,0.006522,-0.996424,-0.084241,0.000711,0.000330,-0.002536,13.987564,-19.313232,23.909363,,,,,,
1484021059.909560,0.077318,1.486209,2.031024,0.000962,0.000661,-0.000312,0.006526,-0.996425,-0.084234,-0.000224,0.001094,0.000310,13.987564,-19.313232,23.909363,,,,,,
1484021059.929549,0.077252,1.486241,2.031106,0.000954,0.001723,-0.000326,0.006518,-0.996427,-0.084203,-0.001070,0.000440,0.000005,13.763504,-19.162292,24.283264,,,,,,
1484021059.949568,0.076897,1.486248,2.031464,0.002033,-0.000392,0.000772,0.006487,-0.996428,-0.084198,-0.000155,0.000365,-0.000289,13.837601,-19.312866,23.984131,,,,,,
1484021059.969557,0.077145,1.486210,2.031233,0.000962,0.000661,-0.000311,0.006511,-0.996425,-0.084234,-0.000148,0.000499,-0.000773,14.212631,-19.313354,24.059692,,,,,,
1484021059.989577,0.076490,1.486193,2.031899,0.000966,-0.000401,0.000769,0.006457,-0.996423,-0.084255,-0.000949,0.000223,-0.001423,13.987762,-19.312622,24.284363,,,,,,
1484021060.009566,0.076325,1.486159,2.032067,0.002025,0.000670,0.000758,0.006446,-0.996420,-0.084291,-0.001792,0.000845,-0.001082,13.987762,-19.312622,24.284363,,,,,,
1484021060.029555,0.075805,1.486177,2.032609,0.000950,0.001722,0.000741,0.006401,-0.996422,-0.084276,-0.002052,-0.000740,0.000001,14.587555,-19.314148,23.910278,,,,,,
1484021060.049574,0.075990,1.486180,2.032443,0.000961,0.000662,-0.000311,0.006416,-0.996422,-0.084272,-0.000297,0.000664,0.000348,14.062714,-19.312866,24.209534,,,,,,
1484021060.069563,0.076024,1.486207,2.032426,0.000946,0.001727,0.000745,0.006417,-0.996424,-0.084244,0.000892,-0.000005,-0.000381,14.738510,-19.163757,24.284729,,,,,,
1484021060.089583,0.075856,1.486193,2.032580,0.002039,-0.001447,-0.000277,0.006404,-0.996423,-0.084259,-0.000850,-0.000235,-0.001160,13.613358,-19.162537,23.983032,,,,,,
1484021060.109572,0.075779,1.486166,2.032669,0.000960,0.000668,-0.001374,0.006399,-0.996421,-0.084286,-0.001135,-0.000436,-0.000980,13.613358,-19.162537,23.983032,,,,,,
1484021060.129591,0.076101,1.486141,2.032361,0.000957,0.000667,-0.000308,0.006428,-0.996419,-0.084310,0.000880,0.002126,-0.001200,14.437485,-19.314087,23.760071,,,,,,
1484021060.149580,0.076107,1.486141,2.032362,0.002020,0.000675,0.000762,0.006429,-0.996419,-0.084309,-0.001195,-0.000468,-0.000743,14.286865,-19.463501,23.985596,,,,,,
1484021060.169600,0.076314,1.486133,2.032174,0.002026,0.000677,-0.001372,0.006447,-0.996418,-0.084316,0.000908,-0.000667,-0.000157,14.062683,-19.312988,24.134521,,,,,,
1484021060.189589,0.076308,1.486114,2.032188,0.000956,0.000667,-0.000308,0.006448,-0.996417,-0.084335,0.001151,0.000994,-0.000153,14.287491,-19.313843,23.759827,,,,,,
1484021060.209608,0.076203,1.486166,2.032311,0.000957,0.000667,-0.000308,0.006435,-0.996421,-0.084284,0.000447,0.000220,0.000834,14.287491,-19.313843,23.759827,,,,,,
1484021060.229597,0.076405,1.486164,2.032101,0.002021,0.000681,-0.001368,0.006452,-0.996421,-0.084285,0.001436,0.002143,-0.000798,13.986435,-19.538208,23.910461,,,,,,
1484021060.249617,0.076735,1.486150,2.031780,0.000951,0.000671,-0.000305,0.006481,-0.996420,-0.084297,0.001240,0.000799,-0.001992,13.912231,-19.387939,23.984619,,,,,,
1484021060.269606,0.076898,1.486175,2.031631,0.000947,0.001733,-0.001386,0.006493,-0.996422,-0.084270,0.001075,0.000542,-0.000431,13.986328,-19.538513,23.685486,,,,,,
1484021060.289626,0.077342,1.486144,2.031216,-0.000123,0.001723,-0.000322,0.006533,-0.996419,-0.084299,0.000059,0.002477,-0.001105,14.437561,-19.313904,23.910034,,,,,,
1484021060.309615,0.077845,1.486178,2.030738,0.000951,0.000671,-0.000305,0.006573,-0.996422,-0.084262,0.000736,0.000359,0.000659,14.437561,-19.313904,23.910034,,,,,,
1484021060.329600,0.077520,1.486173,2.031059,0.000967,-0.001452,-0.000277,0.006546,-0.996422,-0.084269,-0.002090,-0.000649,-0.000967,14.436630,-19.464417,23.535767,,,,,,
1484021060.349589,0.078085,1.486174,2.030488,0.000956,-0.000391,0.000775,0.006593,-0.996422,-0.084264,0.001753,0.000587,-0.000835,14.287613,-19.313538,23.984802,,,,,,
1484021060.369609,0.077769,1.486198,2.030799,0.002026,-0.000381,-0.000288,0.006565,-0.996424,-0.084242,0.000119,0.000299,-0.001192,14.062637,-19.313110,24.059509,,,,,,
1484021060.389598,0.078258,1.486183,2.030323,-0.000118,0.000665,-0.001371,0.006607,-0.996422,-0.084254,0.001205,0.000405,-0.000768,14.062607,-19.313232,23.984497,,,,,,
1484021060.409587,0.078533,1.486177,2.030055,0.000949,0.000675,-0.001369,0.006631,-0.996422,-0.084258,0.000419,0.000679,-0.000291,14.062607,-19.313232,23.984497,,,,,,
1484021060.429606,0.078395,1.486181,2.030216,-0.000132,0.001725,0.000748,0.006619,-0.996422,-0.084255,-0.000378,0.001213,0.001186,14.138733,-19.088318,23.983459,,,,,,
1484021060.449595,0.078372,1.486176,2.030247,0.000953,-0.000388,-0.000288,0.006617,-0.996422,-0.084260,0.000020,0.001808,-0.001250,14.212601,-19.313477,23.984680,,,,,,
1484021060.469615,0.078340,1.486176,2.030292,0.000945,0.000674,-0.000302,0.006614,-0.996422,-0.084261,0.000115,0.000648,-0.000777,13.836960,-19.462463,24.209900,,,,,,
1484021060.489604,0.078246,1.486122,2.030398,-0.000122,0.000665,-0.000305,0.006611,-0.996417,-0.084315,-0.000950,0.001620,-0.001760,14.213303,-19.163574,23.908936,,,,,,
1484021060.509623,0.078595,1.486121,2.030064,-0.001199,0.001716,0.000745,0.006640,-0.996417,-0.084313,0.000898,0.000354,-0.000022,14.213303,-19.163574,23.908936,,,,,,
1484021060.529612,0.079164,1.486112,2.029519,0.002011,0.000683,-0.000299,0.006689,-0.996416,-0.084318,0.000940,0.000750,-0.001223,14.362564,-19.313782,23.909912,,,,,,
1484021060.549632,0.078943,1.486114,2.029747,0.000939,0.000675,-0.000299,0.006670,-0.996417,-0.084318,0.000242,0.001483,-0.000308,13.837631,-19.312744,24.059143,,,,,,
1484021060.569621,0.078728,1.486122,2.029963,0.000947,-0.000386,-0.000285,0.006651,-0.996417,-0.084311,-0.001174,0.001498,-0.000253,14.062225,-19.388184,23.984863,,,,,,
1484021060.589640,0.078779,1.486135,2.029925,-0.001197,0.000656,0.000762,0.006655,-0.996418,-0.084298,0.000532,-0.001918,0.000253,14.362823,-19.239075,23.684570,,,,,,
1484021060.609629,0.078346,1.486136,2.030356,0.000947,-0.000386,-0.000284,0.006618,-0.996418,-0.084300,-0.000713,0.001774,-0.001164,14.362823,-19.239075,23.684570,,,,,,
1484021060.629649,0.078317,1.486137,2.030388,-0.000123,-0.000396,0.000779,0.006616,-0.996419,-0.084299,0.001578,0.000630,-0.000861,14.062561,-19.313354,23.909485,,,,,,
1484021060.649638,0.078118,1.486145,2.030578,0.000950,-0.000385,-0.001351,0.006598,-0.996419,-0.084293,-0.001593,0.000554,-0.000180,13.837830,-19.312195,24.434143,,,,,,
1484021060.669657,0.078469,1.486154,2.030242,-0.000131,0.000665,0.000765,0.006627,-0.996420,-0.084281,0.002254,-0.000116,0.000342,13.912720,-19.312622,24.209290,,,,,,
1484021060.689646,0.078494,1.486146,2.030242,0.000939,0.000676,-0.000299,0.006630,-0.996419,-0.084289,0.001305,0.002630,-0.000290,14.511734,-19.464172,23.760925,,,,,,
1484021060.709666,0.078083,1.486152,2.030669,0.000933,0.000676,-0.000295,0.006595,-0.996420,-0.084286,-0.000735,0.000311,-0.000385,14.511734,-19.464172,23.760925,,,,,,
1484021060.729655,0.078060,1.486175,2.030705,0.000933,0.000676,-0.000295,0.006591,-0.996422,-0.084263,-0.000045,-0.000679,0.000080,14.135071,-19.764099,23.461853,,,,,,
1484021060.749675,0.078054,1.486210,2.030715,-0.000129,-0.000396,0.000782,0.006588,-0.996425,-0.084228,0.000706,0.001124,-0.000138,14.361404,-19.538818,23.836121,,,,,,
1484021060.769664,0.077832,1.486212,2.030951,0.002004,-0.000377,0.000788,0.006569,-0.996425,-0.084228,-0.000282,0.002467,-0.001191,13.987854,-19.238403,23.759033,,,,,,
1484021060.789683,0.077500,1.486225,2.031283,-0.000126,-0.000395,-0.000284,0.006540,-0.996426,-0.084217,-0.001749,-0.000248,0.000981,14.361282,-19.539185,23.611084,,,,,,
1484021060.809672,0.077952,1.486247,2.030841,0.002000,0.000685,-0.000292,0.006576,-0.996428,-0.084193,0.000565,0.000242,-0.000234,14.361282,-19.539185,23.611084,,,,,,
1484021060.829661,0.077618,1.486267,2.031176,0.002011,-0.000375,-0.001345,0.006547,-0.996430,-0.084175,-0.000687,0.001236,0.000297,13.987976,-19.238098,23.984009,,,,,,
1484021060.849681,0.077341,1.486257,2.031465,-0.000141,0.001728,-0.000312,0.006524,-0.996429,-0.084187,-0.000405,0.001998,-0.000240,14.138428,-19.163086,24.133850,,,,,,
1484021060.869670,0.077338,1.486223,2.031486,0.001988,0.001747,-0.001370,0.006526,-0.996426,-0.084220,0.000447,0.000653,-0.002145,14.061432,-19.538330,23.910583,,,,,,
1484021060.889689,0.077507,1.486229,2.031335,0.000926,0.000675,-0.000292,0.006540,-0.996426,-0.084213,-0.000742,0.000592,-0.000321,14.137100,-19.388611,23.760010,,,,,,
1484021060.909678,0.076871,1.486181,2.031961,-0.000144,0.000665,0.000772,0.006490,-0.996422,-0.084265,-0.001928,0.001305,-0.001993,14.137100,-19.388611,23.760010,,,,,,
1484021060.929698,0.076566,1.486169,2.032268,0.000933,-0.000386,-0.000277,0.006466,-0.996421,-0.084279,-0.000820,0.000541,-0.000652,14.136505,-19.538208,24.060730,,,,,,
1484021060.949687,0.076704,1.486161,2.032139,0.000922,0.000674,0.000775,0.006478,-0.996421,-0.084285,-0.000023,-0.000924,-0.000447,13.913437,-19.162720,24.133545,,,,,,
1484021060.969706,0.076754,1.486169,2.032097,0.002000,-0.000377,-0.000274,0.006481,-0.996421,-0.084278,0.001392,0.001640,-0.000531,14.286072,-19.613647,23.911316,,,,,,
1484021060.989695,0.077148,1.486161,2.031696,-0.000123,-0.001456,-0.001333,0.006515,-0.996421,-0.084283,-0.000412,0.000418,-0.000754,14.286484,-19.538513,23.985962,,,,,,
1484021061.009715,0.077025,1.486137,2.031821,0.000925,0.000676,-0.000292,0.006507,-0.996419,-0.084308,-0.000815,0.000630,-0.001508,14.286484,-19.538513,23.985962,,,,,,
1484021061.029704,0.077236,1.486150,2.031623,-0.000146,0.000665,-0.001358,0.006523,-0.996420,-0.084293,0.000145,0.001013,0.000934,13.912308,-19.387695,24.134644,,,,,,
1484021061.049723,0.077161,1.486134,2.031711,0.000925,-0.000388,-0.000274,0.006518,-0.996418,-0.084310,0.000470,0.000981,-0.001033,13.987686,-19.312866,24.134399,,,,,,
1484021061.069712,0.076920,1.486150,2.031959,0.000922,-0.000389,0.000793,0.006497,-0.996420,-0.084295,0.000324,-0.000315,0.000189,13.987717,-19.312744,24.209412,,,,,,
1484021061.089732,0.076913,1.486165,2.031974,0.000933,-0.001449,-0.000260,0.006495,-0.996421,-0.084280,-0.001261,0.000022,0.000220,14.062790,-19.312683,24.359497,,,,,,
1484021061.109721,0.077218,1.486148,2.031673,-0.000141,-0.000397,-0.000277,0.006522,-0.996419,-0.084295,0.000787,0.000097,-0.001383,14.062790,-19.312683,24.359497,,,,,,
1484021061.129740,0.076732,1.486161,2.032169,0.000925,-0.000388,-0.000274,0.006480,-0.996421,-0.084286,-0.000926,0.000128,-0.000019,14.212448,-19.387756,24.435120,,,,,,
1484021061.149729,0.076117,1.486151,2.032800,0.000918,0.000674,-0.000288,0.006429,-0.996420,-0.084299,-0.001638,0.002920,-0.000753,14.212708,-19.313110,24.209717,,,,,,
1484021061.169749,0.076490,1.486163,2.032431,0.000918,0.000674,-0.000288,0.006460,-0.996421,-0.084285,0.001063,-0.001290,-0.000019,14.511856,-19.463867,23.985901,,,,,,
1484021061.189738,0.076536,1.486184,2.032403,0.001971,0.001743,-0.001362,0.006462,-0.996423,-0.084264,-0.000755,-0.000892,-0.000956,14.211578,-19.538086,24.210876,,,,,,
1484021061.209758,0.076131,1.486212,2.032819,0.000912,0.000673,-0.001350,0.006426,-0.996425,-0.084239,-0.001772,0.000346,-0.000127,14.211578,-19.538086,24.210876,,,,,,
1484021061.229747,0.076591,1.486246,2.032362,0.001976,0.000681,-0.000281,0.006462,-0.996428,-0.084202,0.001946,-0.000902,0.000996,14.512329,-19.388489,24.210571,,,,,,
1484021061.249736,0.076594,1.486265,2.032357,0.003058,-0.001433,-0.000250,0.006461,-0.996429,-0.084183,-0.001105,0.000809,-0.000885,14.287338,-19.388123,24.210205,,,,,,
1484021061.269755,0.076405,1.486244,2.032559,-0.000165,0.001724,-0.000301,0.006446,-0.996428,-0.084205,-0.001045,-0.001284,0.000099,14.362488,-19.313965,23.759949,,,,,,
1484021061.289744,0.076363,1.486255,2.032603,0.001976,0.000681,-0.000281,0.006442,-0.996428,-0.084195,0.000699,0.000426,-0.000949,13.762711,-19.312439,24.209045,,,,,,
1484021061.309764,0.076370,1.486274,2.032600,0.000917,-0.000390,-0.000270,0.006441,-0.996430,-0.084176,0.000532,-0.000320,0.000741,13.762711,-19.312439,24.209045,,,,,,
1484021061.329756,0.076398,1.486288,2.032569,0.000920,-0.000388,-0.001337,0.006442,-0.996431,-0.084161,-0.000262,0.000460,0.000955,14.062225,-19.388184,23.984863,,,,,,
1484021061.349774,0.075971,1.486295,2.032991,0.000908,-0.000393,-0.000266,0.006406,-0.996432,-0.084157,-0.001325,0.000674,-0.000453,14.212173,-19.388550,23.910095,,,,,,
1484021061.369763,0.075908,1.486339,2.033077,0.000900,0.000669,-0.000280,0.006397,-0.996436,-0.084114,-0.000935,-0.002420,0.001289,14.287903,-19.238708,23.834473,,,,,,
1484021061.389783,0.076006,1.486350,2.032988,0.001964,0.000677,0.000790,0.006405,-0.996436,-0.084103,0.001271,-0.001137,-0.000522,14.587967,-19.239014,23.984924,,,,,,
1484021061.409772,0.075556,1.486374,2.033434,0.001971,-0.000384,0.000804,0.006365,-0.996439,-0.084082,-0.000063,0.002786,-0.000376,14.587967,-19.239014,23.984924,,,,,,
1484021061.429791,0.075977,1.486379,2.033024,0.000900,0.000669,-0.000280,0.006400,-0.996439,-0.084074,0.000329,0.000513,-0.001299,14.511475,-19.538879,23.986267,,,,,,
1484021061.449780,0.075971,1.486406,2.033027,0.000908,-0.000392,-0.000266,0.006397,-0.996441,-0.084047,-0.001042,0.000744,-0.000548,14.509827,-19.839294,23.687805,,,,,,
1484021061.469800,0.075808,1.486426,2.033212,0.001967,0.000679,-0.000277,0.006382,-0.996443,-0.084028,-0.000675,0.000502,0.000410,14.362015,-19.463135,24.285645,,,,,,
1484021061.489789,0.075642,1.486422,2.033397,0.000900,0.000669,-0.000280,0.006369,-0.996443,-0.084033,-0.000708,0.000013,-0.001065,14.362610,-19.313660,23.984924,,,,,,
1484021061.509809,0.075893,1.486388,2.033159,-0.001242,0.000647,-0.000282,0.006392,-0.996440,-0.084065,0.000169,0.000773,-0.001826,14.362610,-19.313660,23.984924,,,,,,
1484021061.529798,0.075835,1.486395,2.033225,-0.000168,-0.000405,-0.000265,0.006387,-0.996440,-0.084059,0.000159,-0.000767,-0.000093,14.736710,-19.464661,23.686279,,,,,,
1484021061.549818,0.075970,1.486341,2.033109,0.000880,0.001727,0.000776,0.006402,-0.996436,-0.084111,0.001487,0.000464,-0.001460,14.512894,-19.239075,23.834839,,,,,,
1484021061.569807,0.076106,1.486318,2.032995,0.001953,0.001738,-0.001354,0.006415,-0.996434,-0.084134,0.000176,0.001607,-0.000934,13.760986,-19.613098,23.760559,,,,,,
1484021061.589825,0.075832,1.486331,2.033277,0.001965,-0.000386,-0.000259,0.006391,-0.996435,-0.084122,-0.000456,-0.000422,-0.000183,14.211472,-19.538452,23.985840,,,,,,
1484021061.609814,0.076266,1.486362,2.032845,0.001961,0.000677,-0.001340,0.006426,-0.996437,-0.084089,0.000136,0.001534,0.000059,14.211472,-19.538452,23.985840,,,,,,
1484021061.629834,0.076255,1.486337,2.032869,0.001957,0.000676,-0.000273,0.006427,-0.996435,-0.084114,-0.000888,0.001532,-0.001015,14.211105,-19.613464,23.986206,,,,,,
1484021061.649823,0.076598,1.486356,2.032557,0.001931,0.003859,0.000751,0.006454,-0.996437,-0.084093,0.000611,0.001030,0.000032,14.287766,-19.313049,24.284790,,,,,,
1484021061.669812,0.076267,1.486365,2.032890,0.000881,0.000663,-0.000273,0.006425,-0.996438,-0.084086,-0.001466,0.000649,-0.000783,14.062332,-19.387817,24.209900,,,,,,
1484021061.689832,0.075929,1.486356,2.033229,-0.000170,-0.001469,-0.000247,0.006398,-0.996437,-0.084097,-0.000035,0.001381,-0.001566,14.362610,-19.313660,23.984924,,,,,,
1484021061.709821,0.076008,1.486361,2.033158,-0.000190,0.001716,-0.001356,0.006404,-0.996437,-0.084092,-0.000011,0.000969,0.000306,14.362610,-19.313660,23.984924,,,,,,
1484021061.729841,0.076047,1.486336,2.033141,0.001955,-0.000389,-0.000256,0.006409,-0.996435,-0.084116,0.000015,-0.000513,-0.001348,14.211731,-19.463745,23.760498,,,,,,
1484021061.749830,0.076220,1.486275,2.032965,0.000880,0.000663,-0.000273,0.006428,-0.996430,-0.084175,0.000698,-0.000182,-0.002586,14.211853,-19.463440,23.985474,,,,,,
1484021061.769850,0.076282,1.486301,2.032916,0.000880,0.000663,-0.000273,0.006432,-0.996432,-0.084149,-0.000221,0.000613,0.001233,14.061111,-19.613220,23.985962,,,,,,
1484021061.789839,0.076622,1.486307,2.032580,0.000880,0.000663,-0.000273,0.006460,-0.996433,-0.084141,0.000361,0.001255,-0.001567,14.511429,-19.539001,23.911255,,,,,,
1484021061.809857,0.076522,1.486327,2.032689,0.000888,-0.000398,-0.000259,0.006450,-0.996435,-0.084122,0.000569,0.000829,0.000199,14.511429,-19.539001,23.911255,,,,,,
1484021061.829846,0.076476,1.486324,2.032747,0.000875,-0.000403,0.000811,0.006446,-0.996434,-0.084125,0.001427,0.000463,-0.000210,14.287613,-19.313538,23.984802,,,,,,
1484021061.849866,0.076368,1.486338,2.032867,0.000866,0.001722,-0.001350,0.006436,-0.996436,-0.084112,-0.000775,-0.000101,-0.000224,14.362610,-19.313660,23.984924,,,,,,
1484021061.869855,0.076083,1.486337,2.033158,0.000870,0.000660,-0.000269,0.006412,-0.996435,-0.084114,-0.000415,0.000540,-0.000923,14.512375,-19.388367,24.285522,,,,,,
1484021061.889874,0.075868,1.486357,2.033360,0.000878,-0.000402,-0.000255,0.006392,-0.996437,-0.084096,-0.000869,0.001244,-0.000300,14.513809,-19.088623,24.134033,,,,,,
1484021061.909863,0.075998,1.486358,2.033243,0.003003,0.000678,-0.000263,0.006403,-0.996437,-0.084094,0.000250,0.000786,-0.001172,14.513809,-19.088623,24.134033,,,,,,
1484021061.929883,0.075938,1.486375,2.033322,0.004078,-0.000374,-0.000246,0.006397,-0.996439,-0.084078,-0.000339,0.002390,-0.000120,14.512024,-19.389404,23.610535,,,,,,
1484021061.949872,0.076117,1.486424,2.033157,0.001929,0.001731,-0.000280,0.006408,-0.996443,-0.084028,0.000092,-0.002092,0.000822,14.137604,-19.313354,23.984619,,,,,,
1484021061.969892,0.076298,1.486413,2.032994,0.000878,-0.000401,-0.000255,0.006424,-0.996442,-0.084038,-0.000122,0.000119,-0.000801,14.137924,-19.238464,23.909180,,,,,,
,,,,,,,,,,,,,,,,33.759187,-118.389376,312.680542,0.870000,258.398438,1484021061.927412
1484021061.989881,0.076601,1.486423,2.032700,0.000856,0.000655,0.000801,0.006449,-0.996443,-0.084026,0.000784,0.001509,-0.000187,14.438232,-19.164062,23.759338,,,,,,
1484021062.009901,0.076419,1.486392,2.032895,0.001934,-0.000396,-0.000249,0.006436,-0.996440,-0.084059,-0.000974,0.000255,-0.002138,14.438232,-19.164062,23.759338,,,,,,
1484021062.029889,0.076303,1.486397,2.033017,0.000859,0.000656,-0.000266,0.006426,-0.996441,-0.084053,0.000135,0.000957,0.000100,13.840561,-18.786865,24.656494,,,,,,
,,,,,,,,,,,,,,,,33.759186,-118.389381,312.667236,0.870000,-1.000000,1484021062.018602
1484021062.049908,0.076085,1.486396,2.033243,-0.000197,-0.000414,-0.001321,0.006408,-0.996440,-0.084056,-0.000548,-0.000996,-0.000813,14.064255,-19.012695,24.282959,,,,,,
1484021062.069897,0.075993,1.486372,2.033347,-0.001277,0.000636,0.000795,0.006402,-0.996438,-0.084080,-0.000176,0.001260,-0.000102,14.664215,-19.013733,24.208923,,,,,,
1484021062.089886,0.075954,1.486334,2.033387,0.000859,0.000656,-0.000266,0.006401,-0.996435,-0.084118,-0.001061,0.000753,-0.001590,14.212036,-19.462891,24.360474,,,,,,
1484021062.109906,0.076249,1.486344,2.033124,0.000845,0.001716,0.001853,0.006425,-0.996436,-0.084107,-0.000047,0.001075,-0.000244,14.212036,-19.462891,24.360474,,,,,,
1484021062.129895,0.075790,1.486338,2.033593,0.000859,0.000656,-0.000266,0.006387,-0.996436,-0.084115,-0.001123,-0.001413,-0.000434,14.063385,-19.163086,24.058716,,,,,,
1484021062.149915,0.075866,1.486324,2.033509,0.000858,-0.000409,-0.001315,0.006395,-0.996434,-0.084129,0.000701,-0.000987,-0.000862,13.912643,-19.312866,24.059265,,,,,,
1484021062.169904,0.075365,1.486352,2.034005,0.001918,-0.000401,0.000822,0.006351,-0.996437,-0.084104,-0.001285,0.001869,-0.000841,13.987610,-19.313110,23.984375,,,,,,
1484021062.189924,0.074825,1.486368,2.034556,0.000847,0.000652,-0.000262,0.006304,-0.996438,-0.084092,-0.000918,0.001336,0.000581,14.138809,-19.088074,24.133484,,,,,,
1484021062.209913,0.075121,1.486342,2.034290,-0.000230,0.001703,0.000787,0.006331,-0.996436,-0.084116,0.000200,0.000617,-0.001349,14.138809,-19.088074,24.133484,,,,,,
1484021062.229933,0.074960,1.486333,2.034463,0.000839,0.001714,-0.000276,0.006318,-0.996435,-0.084126,-0.000764,0.000433,-0.001369,13.912186,-19.388062,23.909607,,,,,,
1484021062.249922,0.074751,1.486342,2.034672,-0.000215,-0.000420,0.000816,0.006300,-0.996436,-0.084118,-0.000440,0.000693,0.000500,14.213303,-19.163574,23.908936,,,,,,
1484021062.269940,0.074972,1.486374,2.034460,0.002988,-0.000391,-0.000242,0.006316,-0.996439,-0.084085,-0.000319,0.002008,0.000193,14.061142,-19.613098,24.060974,,,,,,
1484021062.289929,0.075120,1.486365,2.034319,0.000855,-0.000409,-0.000248,0.006329,-0.996438,-0.084094,0.000110,-0.000007,-0.000806,13.913513,-19.162476,24.283508,,,,,,
1484021062.309949,0.075474,1.486378,2.033974,0.001902,0.000657,-0.000256,0.006358,-0.996439,-0.084078,0.001272,-0.000067,-0.000135,13.913513,-19.162476,24.283508,,,,,,
1484021062.329908,0.075745,1.486371,2.033705,0.000835,0.000648,-0.000259,0.006381,-0.996438,-0.084083,0.000821,0.000787,-0.000664,13.838379,-19.162720,24.058411,,,,,,
1484021062.349927,0.075930,1.486342,2.033522,-0.001295,0.000630,-0.001332,0.006399,-0.996436,-0.084111,-0.000051,0.001166,-0.001384,14.212921,-19.238586,23.909302,,,,,,
1484021062.369916,0.075542,1.486357,2.033933,0.000835,0.000648,-0.000259,0.006365,-0.996437,-0.084099,-0.001086,0.000160,-0.000557,14.588654,-19.089172,23.834167,,,,,,
1484021062.389936,0.075432,1.486362,2.034050,0.000835,0.000648,-0.000259,0.006355,-0.996438,-0.084094,0.000801,-0.000129,0.000338,13.762253,-19.387634,24.059387,,,,,,
1484021062.409925,0.075599,1.486360,2.033895,0.002968,0.000667,-0.000253,0.006370,-0.996437,-0.084095,-0.000281,0.000405,-0.000790,13.762253,-19.387634,24.059387,,,,,,
1484021062.429944,0.075051,1.486339,2.034465,-0.000242,0.001699,0.000791,0.006325,-0.996436,-0.084119,-0.001366,0.000601,-0.000415,14.214203,-19.013062,24.208252,,,,,,
1484021062.449933,0.074849,1.486312,2.034700,0.000824,0.001709,0.000794,0.006310,-0.996433,-0.084148,-0.000970,0.001743,-0.001210,14.063766,-19.088074,24.058350,,,,,,
1484021062.469953,0.074320,1.486285,2.035246,0.000819,0.000642,0.000811,0.006268,-0.996431,-0.084178,-0.001202,-0.001036,-0.000875,14.436859,-19.463745,23.985779,,,,,,
1484021062.489942,0.074201,1.486285,2.035372,0.001897,-0.000409,-0.000239,0.006258,-0.996431,-0.084179,0.000517,0.000337,0.000164,14.213150,-19.237915,24.359314,,,,,,
1484021062.509931,0.074093,1.486268,2.035487,0.000822,0.000643,-0.000256,0.006250,-0.996430,-0.084196,0.001044,0.000580,-0.001070,14.213150,-19.237915,24.359314,,,,,,
1484021062.529950,0.074220,1.486228,2.035373,-0.000252,0.001696,-0.000273,0.006263,-0.996426,-0.084235,-0.000038,-0.000247,-0.000222,14.285889,-19.614197,23.536316,,,,,,
1484021062.549939,0.074007,1.486191,2.035598,-0.000244,0.000634,-0.000259,0.006248,-0.996423,-0.084273,-0.000297,0.000528,-0.001237,14.886993,-19.390076,23.536072,,,,,,
1484021062.569959,0.073791,1.486209,2.035832,-0.000244,0.000634,-0.000259,0.006229,-0.996425,-0.084257,0.000211,-0.000096,-0.000231,14.288666,-19.088684,23.833740,,,,,,
1484021062.589948,0.073726,1.486229,2.035920,0.000830,-0.000418,-0.000241,0.006222,-0.996426,-0.084237,-0.000027,0.000470,0.000085,13.987030,-19.388611,23.609741,,,,,,
1484021062.609968,0.073728,1.486220,2.035918,-0.000244,0.000634,-0.000258,0.006223,-0.996426,-0.084246,-0.000211,-0.000111,0.000765,13.987030,-19.388611,23.609741,,,,,,
1484021062.629957,0.073625,1.486173,2.036029,0.000814,-0.000424,0.000828,0.006217,-0.996422,-0.084293,-0.000175,0.000953,-0.001568,14.287613,-19.313538,23.984802,,,,,,
1484021062.649976,0.073658,1.486176,2.036003,0.000814,-0.000424,0.000828,0.006220,-0.996422,-0.084291,0.000143,0.001183,-0.000625,14.211273,-19.539001,23.610840,,,,,,
1484021062.669965,0.074014,1.486188,2.035649,-0.000249,-0.000432,-0.000242,0.006249,-0.996423,-0.084276,-0.000298,-0.000602,0.000368,14.436142,-19.613647,24.061584,,,,,,
1484021062.689985,0.073756,1.486186,2.035913,0.001884,-0.000413,-0.000236,0.006227,-0.996423,-0.084280,-0.001909,0.001367,-0.001047,14.211731,-19.463745,23.760498,,,,,,
1484021062.709974,0.073279,1.486189,2.036382,0.000819,-0.001486,0.001909,0.006187,-0.996423,-0.084279,-0.001548,0.000833,-0.000468,14.211731,-19.463745,23.760498,,,,,,
1484021062.729993,0.073360,1.486176,2.036309,0.000813,0.000640,-0.001319,0.006195,-0.996422,-0.084292,-0.000076,0.000832,-0.001157,14.586349,-19.539307,23.761414,,,,,,
1484021062.749982,0.073655,1.486191,2.036021,-0.000257,0.000630,-0.000256,0.006219,-0.996423,-0.084276,0.001045,0.001611,0.000429,14.811813,-19.464417,23.911377,,,,,,
1484021062.770002,0.073767,1.486248,2.035922,0.002940,0.000657,0.000820,0.006224,-0.996428,-0.084217,-0.000624,-0.000246,-0.000469,14.285217,-19.763916,23.687073,,,,,,
1484021062.789991,0.073394,1.486243,2.036307,-0.000270,0.000624,-0.000253,0.006193,-0.996428,-0.084225,-0.000959,-0.000261,-0.000751,14.510910,-19.614441,23.611633,,,,,,
1484021062.810010,0.073235,1.486216,2.036483,0.000794,0.000633,0.000816,0.006181,-0.996425,-0.084253,-0.000810,0.000850,-0.001212,14.510910,-19.614441,23.611633,,,,,,
1484021062.829999,0.073360,1.486224,2.036376,0.000794,0.000633,0.000816,0.006191,-0.996426,-0.084244,0.000355,0.000180,-0.000595,14.436279,-19.539307,23.611145,,,,,,
1484021062.850019,0.073828,1.486224,2.035929,-0.000277,0.001686,-0.000268,0.006231,-0.996426,-0.084241,0.001750,0.001217,0.000226,14.137711,-19.312988,24.209656,,,,,,
1484021062.870008,0.073756,1.486229,2.036002,0.000794,0.000633,0.000816,0.006224,-0.996426,-0.084237,-0.000182,0.000775,-0.000357,13.987305,-19.387817,24.134766,,,,,,
1484021062.890027,0.073766,1.486250,2.036016,0.000778,0.002756,0.000788,0.006224,-0.996428,-0.084216,0.000551,0.000929,-0.000654,13.988358,-19.163086,23.983643,,,,,,
1484021062.910016,0.073631,1.486243,2.036154,-0.000285,0.002748,-0.000282,0.006213,-0.996428,-0.084223,0.000394,0.002058,-0.000982,13.988358,-19.163086,23.983643,,,,,,
1484021062.930036,0.074052,1.486204,2.035766,-0.001344,0.001677,-0.000271,0.006251,-0.996424,-0.084260,0.000142,-0.001012,-0.000716,14.587326,-19.388611,24.210693,,,,,,
1484021062.950025,0.074276,1.486198,2.035561,0.000784,0.000629,-0.000248,0.006270,-0.996424,-0.084265,0.000840,-0.000143,-0.000864,14.287720,-19.313171,24.209839,,,,,,
1484021062.970014,0.074773,1.486173,2.035077,-0.000279,0.000620,-0.001318,0.006314,-0.996422,-0.084286,0.000934,0.000679,-0.001713,14.213272,-19.163635,23.833984,,,,,,
1484021062.990033,0.074321,1.486166,2.035533,-0.001341,-0.000451,-0.000240,0.006277,-0.996421,-0.084296,-0.001119,-0.001367,-0.000314,14.437256,-19.388611,24.060425,,,,,,
1484021063.010022,0.074426,1.486166,2.035453,0.000773,0.001689,0.000804,0.006285,-0.996421,-0.084295,0.000566,-0.000558,0.000189,14.437256,-19.388611,24.060425,,,,,,
1484021063.030042,0.074173,1.486153,2.035721,0.000787,0.000630,-0.001315,0.006265,-0.996420,-0.084310,-0.000696,0.001120,-0.001688,14.587219,-19.388977,23.985657,,,,,,
1484021063.050031,0.074389,1.486178,2.035497,0.001858,-0.000423,-0.000231,0.006281,-0.996422,-0.084284,0.000371,0.000267,-0.000448,14.136261,-19.612854,24.286072,,,,,,
1484021063.070051,0.074399,1.486174,2.035493,-0.000283,0.000620,-0.000251,0.006283,-0.996422,-0.084288,0.000080,0.000160,0.000776,14.136658,-19.537781,24.360718,,,,,,
,,,,,,,,,,,,,,,,33.759186,-118.389381,312.625366,0.000000,-1.000000,1484021063.038400
1484021063.090040,0.074245,1.486167,2.035664,0.000784,0.000629,-0.000248,0.006270,-0.996421,-0.084295,-0.000868,0.000663,0.000647,14.362976,-19.238647,23.984558,,,,,,
1484021063.110059,0.074211,1.486177,2.035690,0.001849,-0.000428,-0.001296,0.006266,-0.996422,-0.084286,0.000356,0.000954,-0.000233,14.362976,-19.238647,23.984558,,,,,,
1484021063.130048,0.074488,1.486167,2.035441,0.000761,0.001684,0.000806,0.006291,-0.996421,-0.084293,-0.000156,-0.000512,-0.001324,14.061142,-19.613098,24.060974,,,,,,
1484021063.150068,0.074578,1.486184,2.035348,0.001838,0.000633,-0.000244,0.006297,-0.996423,-0.084276,-0.000300,0.001214,0.000002,14.136551,-19.538086,24.135742,,,,,,
1484021063.170057,0.075254,1.486167,2.034681,0.000768,0.000622,0.000820,0.006355,-0.996421,-0.084289,0.001290,0.000236,-0.000794,14.661896,-19.463989,24.061157,,,,,,
1484021063.190076,0.075724,1.486144,2.034209,0.000771,0.000623,-0.000247,0.006396,-0.996419,-0.084309,0.001065,-0.000865,-0.001491,14.287231,-19.388489,23.985168,,,,,,
1484021063.210065,0.075896,1.486119,2.034039,0.000790,-0.001499,-0.001285,0.006413,-0.996417,-0.084332,0.001034,-0.000028,-0.000949,14.287231,-19.388489,23.985168,,,,,,
1484021063.230085,0.075670,1.486111,2.034266,0.001835,0.000632,0.000822,0.006394,-0.996416,-0.084342,0.000503,0.002077,-0.001077,14.513382,-19.163757,24.059448,,,,,,
1484021063.250074,0.075558,1.486137,2.034391,0.000771,0.000624,-0.000247,0.006383,-0.996419,-0.084317,0.000041,-0.000881,0.000882,14.288055,-19.238281,24.134460,,,,,,
1484021063.270093,0.075484,1.486153,2.034464,0.002903,-0.000425,-0.001292,0.006376,-0.996420,-0.084301,-0.002393,0.000433,-0.000278,14.437607,-19.313782,23.985046,,,,,,
1484021063.290082,0.075467,1.486176,2.034514,-0.001389,0.002722,-0.000279,0.006372,-0.996422,-0.084278,0.000494,0.001244,0.000401,14.136627,-19.463989,23.535339,,,,,,
1484021063.310102,0.075996,1.486158,2.034000,0.000756,0.000616,0.000821,0.006418,-0.996420,-0.084293,0.001608,0.000983,0.000492,14.136627,-19.463989,23.535339,,,,,,
1484021063.330083,0.075991,1.486170,2.034012,-0.000307,0.000608,-0.000248,0.006417,-0.996421,-0.084282,0.000648,0.000801,-0.000527,13.837753,-19.312378,24.284119,,,,,,
1484021063.350102,0.076197,1.486155,2.033829,-0.001381,0.001660,-0.000266,0.006435,-0.996420,-0.084295,-0.000835,0.000204,-0.000453,14.063080,-19.237854,24.209167,,,,,,
1484021063.370091,0.076587,1.486147,2.033447,0.000752,0.001679,-0.000260,0.006469,-0.996419,-0.084300,0.000703,0.002111,-0.000874,14.512222,-19.388855,23.985535,,,,,,
1484021063.390080,0.076944,1.486113,2.033102,0.000770,-0.000443,-0.001298,0.006502,-0.996417,-0.084332,0.001372,-0.001279,-0.001072,14.513046,-19.238647,24.134827,,,,,,
1484021063.410100,0.076635,1.486110,2.033406,0.000756,0.000617,0.000821,0.006476,-0.996416,-0.084336,-0.001349,-0.001295,-0.000884,14.513046,-19.238647,24.134827,,,,,,
1484021063.430089,0.076559,1.486084,2.033499,-0.001374,0.000599,-0.000252,0.006471,-0.996414,-0.084363,0.000029,-0.000565,-0.001147,13.911407,-19.538147,23.835388,,,,,,
1484021063.450108,0.076522,1.486067,2.033538,0.000755,-0.000451,-0.000230,0.006470,-0.996413,-0.084380,0.000580,0.000548,-0.000108,14.212921,-19.238586,23.909302,,,,,,
1484021063.470097,0.076577,1.486106,2.033490,0.000739,0.001672,-0.000258,0.006471,-0.996416,-0.084342,0.000426,0.000078,-0.000024,14.136856,-19.463318,23.985352,,,,,,
1484021063.490117,0.076542,1.486087,2.033531,-0.000312,-0.000460,-0.000233,0.006470,-0.996414,-0.084360,0.000442,0.000580,-0.000143,14.063080,-19.237854,24.209167,,,,,,
1484021063.510106,0.076315,1.486058,2.033758,-0.000312,-0.000460,-0.000233,0.006453,-0.996412,-0.084391,-0.001692,-0.000048,-0.000433,14.063080,-19.237854,24.209167,,,,,,
1484021063.530126,0.076249,1.486053,2.033841,0.001802,0.001681,0.000811,0.006448,-0.996411,-0.084396,-0.000451,0.000119,-0.000748,14.138458,-19.162964,24.208862,,,,,,
1484021063.550115,0.075924,1.486070,2.034167,-0.000309,-0.000459,-0.001300,0.006419,-0.996413,-0.084381,-0.001551,0.001525,-0.000320,14.063232,-19.163513,23.758728,,,,,,
1484021063.570134,0.076071,1.486076,2.034031,0.000739,0.001673,-0.000258,0.006431,-0.996413,-0.084374,-0.001075,-0.001450,-0.000907,14.065521,-18.713440,23.831543,,,,,,
1484021063.590123,0.076048,1.486099,2.034055,0.001811,-0.000448,-0.000226,0.006427,-0.996415,-0.084351,-0.001041,-0.000563,0.000107,13.911789,-19.463135,23.835022,,,,,,
1484021063.610143,0.076500,1.486112,2.033615,0.001800,0.000613,0.000826,0.006464,-0.996416,-0.084335,0.000860,-0.000044,-0.000595,13.911789,-19.463135,23.835022,,,,,,
1484021063.630132,0.076534,1.486129,2.033586,0.000732,0.001667,-0.001324,0.006466,-0.996418,-0.084319,-0.000881,-0.000851,0.000121,14.288849,-19.088135,24.208740,,,,,,
1484021063.650151,0.076387,1.486117,2.033745,0.000736,0.000605,-0.000243,0.006454,-0.996417,-0.084332,0.001053,-0.000470,-0.000416,14.287979,-19.238525,23.984436,,,,,,
1484021063.670140,0.076466,1.486089,2.033666,0.000747,-0.000456,-0.001296,0.006463,-0.996414,-0.084359,-0.000634,0.000519,-0.000816,13.688080,-19.237305,24.208557,,,,,,
1484021063.690160,0.076971,1.486114,2.033159,0.000744,-0.000457,-0.000229,0.006504,-0.996417,-0.084330,0.002270,0.001650,0.000056,13.839203,-19.012451,24.207703,,,,,,
1484021063.710149,0.076925,1.486100,2.033210,0.000743,0.000607,-0.002376,0.006501,-0.996415,-0.084345,-0.000703,-0.000090,-0.001653,13.839203,-19.012451,24.207703,,,,,,
1484021063.730168,0.076973,1.486080,2.033190,-0.001397,0.000586,-0.000249,0.006507,-0.996414,-0.084364,0.001520,0.000778,-0.001116,14.287155,-19.388672,23.835205,,,,,,
1484021063.750157,0.077009,1.486094,2.033177,-0.000341,0.000589,-0.000245,0.006509,-0.996415,-0.084351,-0.000283,0.001481,0.000687,14.288239,-19.163818,23.759094,,,,,,
1484021063.770177,0.077065,1.486081,2.033138,0.000718,0.001660,-0.000257,0.006514,-0.996414,-0.084363,0.001222,0.000381,-0.001132,13.987457,-19.313538,23.684387,,,,,,
1484021063.790166,0.077280,1.486076,2.032950,-0.000349,0.001650,-0.000260,0.006533,-0.996413,-0.084366,0.000456,0.001617,0.000168,14.438614,-19.089050,23.758972,,,,,,
1484021063.810185,0.077790,1.486078,2.032447,0.002866,-0.000445,-0.000223,0.006576,-0.996414,-0.084361,0.001222,0.000793,-0.000920,14.438614,-19.089050,23.758972,,,,,,
1484021063.830174,0.077883,1.486061,2.032356,0.000728,0.000599,-0.001309,0.006585,-0.996412,-0.084378,-0.000298,0.001295,-0.001148,14.212967,-19.238464,23.984314,,,,,,
1484021063.850163,0.077805,1.486051,2.032445,0.000722,0.000597,0.000824,0.006579,-0.996411,-0.084388,-0.000552,0.000562,-0.000466,14.587814,-19.239441,23.684937,,,,,,
1484021063.870183,0.077625,1.486042,2.032631,0.000733,-0.000463,-0.000229,0.006565,-0.996410,-0.084398,-0.000095,-0.000568,-0.001005,14.513046,-19.164734,23.384460,,,,,,
1484021063.890172,0.077911,1.486019,2.032352,-0.001411,0.000579,0.000818,0.006591,-0.996409,-0.084419,0.000520,-0.001654,-0.000542,14.212921,-19.238586,23.909302,,,,,,
1484021063.910191,0.078094,1.486043,2.032186,0.001774,0.001662,-0.000253,0.006604,-0.996411,-0.084394,-0.000455,0.001202,-0.000430,14.212921,-19.238586,23.909302,,,,,,
1484021063.930181,0.078106,1.485986,2.032185,-0.000352,0.000582,-0.000245,0.006610,-0.996406,-0.084450,-0.000704,0.001289,-0.000846,14.512222,-19.388855,23.985535,,,,,,
1484021063.950200,0.078273,1.485975,2.032025,0.001778,0.000600,0.000827,0.006625,-0.996405,-0.084461,0.000196,0.000647,-0.000302,14.286041,-19.613708,23.836365,,,,,,
1484021063.970189,0.078173,1.485958,2.032132,-0.000352,0.000582,-0.000245,0.006617,-0.996403,-0.084478,-0.000209,0.000035,-0.000605,14.136353,-19.538635,23.760742,,,,,,
1484021063.990209,0.078247,1.485966,2.032065,0.000707,0.001653,-0.000256,0.006623,-0.996404,-0.084469,0.000686,-0.000849,-0.000767,13.909790,-19.838501,23.611877,,,,,,
1484021064.010198,0.078004,1.485973,2.032313,-0.000341,-0.000478,-0.001298,0.006602,-0.996405,-0.084464,-0.000682,0.000097,-0.000634,13.909790,-19.838501,23.611877,,,,,,
1484021064.030217,0.077738,1.485954,2.032577,-0.000349,0.000584,-0.001312,0.006581,-0.996403,-0.084485,-0.001408,-0.000194,-0.000171,14.736633,-19.464905,23.536255,,,,,,
1484021064.050206,0.078156,1.485951,2.032174,0.000707,0.001654,-0.000256,0.006617,-0.996403,-0.084485,0.000906,0.000828,0.000668,14.436813,-19.463867,23.910767,,,,,,
1484021064.070226,0.078130,1.485993,2.032216,0.001783,-0.001530,0.000856,0.006611,-0.996406,-0.084443,-0.000782,-0.000054,0.000642,14.061737,-19.463501,23.760254,,,,,,
,,,,,,,,,,,,,,,,33.759186,-118.389381,312.622742,0.000000,-1.000000,1484021064.044571
1484021064.090215,0.078077,1.485983,2.032260,0.000707,0.000586,-0.001308,0.006607,-0.996406,-0.084453,0.000244,0.000236,-0.000279,14.213760,-19.088318,24.058594,,,,,,
1484021064.110234,0.077910,1.485986,2.032416,0.000712,-0.000477,-0.000227,0.006593,-0.996406,-0.084451,-0.000825,0.000770,-0.000723,14.213760,-19.088318,24.058594,,,,,,
1484021064.130223,0.077587,1.485978,2.032757,0.000701,0.000584,0.000825,0.006566,-0.996405,-0.084462,0.000254,0.001334,-0.000560,13.990463,-18.787476,24.431763,,,,,,
1484021064.150243,0.077474,1.485951,2.032877,-0.000366,0.000575,0.000822,0.006559,-0.996403,-0.084489,-0.000333,0.000889,-0.000167,13.166061,-18.710571,24.880127,,,,,,
1484021064.170232,0.077566,1.485944,2.032807,-0.000373,0.001636,0.000808,0.006567,-0.996402,-0.084495,0.000116,-0.000256,-0.000740,13.766983,-18.487061,24.504944,,,,,,
1484021064.190251,0.077646,1.485947,2.032729,0.000704,0.000585,-0.000242,0.006574,-0.996402,-0.084493,-0.000882,-0.000576,-0.000941,14.365417,-18.788147,24.357300,,,,,,
1484021064.210240,0.077548,1.485944,2.032806,0.002861,-0.002581,-0.000193,0.006566,-0.996402,-0.084495,0.001125,-0.000897,-0.000588,14.365417,-18.788147,24.357300,,,,,,
1484021064.230260,0.077713,1.485938,2.032653,-0.001431,-0.000502,-0.000233,0.006580,-0.996402,-0.084501,0.000302,-0.000791,-0.000430,14.066528,-18.562744,24.355713,,,,,,
