timestamp(unix),attitude_roll(radians),attitude_pitch(radians),attitude_yaw(radians),rotation_rate_x(radians/s),rotation_rate_y(radians/s),rotation_rate_z(radians/s),gravity_x(G),gravity_y(G),gravity_z(G),user_acc_x(G),user_acc_y(G),user_acc_z(G),magnetic_field_x(microteslas),magnetic_field_y(microteslas),magnetic_field_z(microteslas),latitude(degree),longitude(degree),altitude(meter),speed(m/s),course(degree),timestamp(unix)
1487811295.884705,0.163070,1.490803,0.577940,-0.346865,-0.070463,0.031245,0.012973,-0.996802,-0.078848,0.035138,-0.021218,-0.018213,-13.687012,-35.498833,2.179718,,,,,,
,,,,,,,,,,,,,,,,37.782440,-122.391505,11.848755,0.500000,300.937500,1487811295.886523
1487811295.904694,0.148279,1.485716,0.592324,-0.112602,-0.017462,0.031201,0.012554,-0.996383,-0.084045,0.013264,0.006255,-0.038117,-13.612564,-35.574501,1.805206,,,,,,
,,,,,,,,,,,,,,,,37.782440,-122.391505,11.848755,0.500000,300.937500,1487811295.002078
1487811295.924713,0.149359,1.487260,0.590532,0.158609,-0.037342,-0.012556,0.012416,-0.996513,-0.082510,-0.000667,0.017784,-0.022562,-13.988495,-35.798378,2.180756,,,,,,
1487811295.944702,0.161058,1.490707,0.577777,0.173928,-0.080710,-0.035397,0.012830,-0.996795,-0.078968,-0.006314,0.004989,-0.002315,-13.911926,-35.498268,2.329346,,,,,,
1487811295.964722,0.167728,1.493057,0.568174,0.086926,-0.156873,-0.004770,0.012965,-0.996980,-0.076571,-0.010050,-0.012648,0.046191,-13.986404,-35.348839,1.878479,,,,,,
1487811295.984711,0.157278,1.494472,0.577189,-0.041226,-0.003034,0.034437,0.011943,-0.997089,-0.075309,-0.022090,-0.007611,0.052543,-13.986404,-35.348839,1.878479,,,,,,
1487811296.004730,0.152595,1.492419,0.583156,-0.124846,0.073777,-0.012686,0.011901,-0.996930,-0.077387,-0.017303,0.011426,0.006113,-13.760605,-35.272942,2.703461,,,,,,
1487811296.024719,0.157249,1.490307,0.579458,-0.055108,0.028765,-0.039619,0.012591,-0.996762,-0.079411,-0.001757,0.004346,-0.010982,-13.762909,-35.723045,2.630707,,,,,,
1487811296.044739,0.165364,1.490227,0.571291,0.023005,-0.010906,-0.025003,0.013248,-0.996756,-0.079384,0.016598,-0.000192,-0.008827,-13.537445,-35.574287,2.030304,,,,,,
1487811296.064728,0.170857,1.490097,0.565557,-0.015460,-0.014459,0.003719,0.013706,-0.996746,-0.079438,0.015423,0.002162,-0.007965,-13.237915,-35.649956,1.881104,,,,,,
1487811296.084719,0.165855,1.489029,0.570057,-0.073984,-0.036208,0.009173,0.013484,-0.996659,-0.080555,-0.000224,0.005967,-0.008114,-13.237915,-35.649956,1.881104,,,,,,
,,,,,,,,,,,,,,,,37.782428,-122.391522,11.906647,0.500000,300.937500,1487811296.002079
1487811296.104709,0.156830,1.487681,0.578240,-0.050459,-0.042363,0.004001,0.012967,-0.996548,-0.082001,-0.014172,0.005108,-0.004455,-13.763809,-35.873497,2.331451,,,,,,
1487811296.124728,0.156005,1.487379,0.578307,0.000674,-0.027039,-0.010988,0.012946,-0.996523,-0.082309,-0.014060,0.008135,0.003665,-13.538651,-35.799507,1.881409,,,,,,
1487811296.144717,0.159473,1.487549,0.575154,0.005498,0.038812,-0.001183,0.013204,-0.996537,-0.082096,0.000376,-0.004607,0.003285,-13.538284,-35.724510,1.881042,,,,,,
1487811296.164737,0.156719,1.487301,0.578520,-0.028479,0.009834,0.017237,0.013017,-0.996516,-0.082376,0.011001,0.003215,-0.006415,-13.088760,-35.800514,1.657104,,,,,,
1487811296.184726,0.150640,1.486314,0.584118,-0.054800,-0.040298,0.023154,0.012663,-0.996433,-0.083426,0.005983,0.004399,-0.004388,-13.088760,-35.800514,1.657104,,,,,,
1487811296.204715,0.139522,1.485075,0.594299,-0.053586,-0.050875,-0.001215,0.011907,-0.996328,-0.084784,-0.013158,0.008215,-0.001702,-13.763687,-35.799278,1.806091,,,,,,
1487811296.224734,0.139117,1.484328,0.593736,-0.023776,-0.030411,-0.032321,0.011976,-0.996264,-0.085526,-0.012616,0.006274,0.000123,-13.463135,-35.650291,1.430786,,,,,,
1487811296.244723,0.144801,1.484568,0.588072,0.006745,0.019733,-0.014768,0.012427,-0.996285,-0.085221,0.005624,-0.016304,0.007660,-13.387451,-35.574501,2.030548,,,,,,
1487811296.264743,0.155212,1.484549,0.578438,-0.027634,0.042751,0.013592,0.013316,-0.996283,-0.085105,0.020390,-0.011957,0.004203,-13.462006,-35.425301,1.429657,,,,,,
1487811296.284732,0.158699,1.483323,0.575312,-0.058202,-0.007419,0.013072,0.013806,-0.996177,-0.086264,0.017154,-0.006951,-0.005182,-13.462006,-35.425301,1.429657,,,,,,
1487811296.304751,0.160967,1.481856,0.572135,-0.021423,-0.065458,-0.020200,0.014236,-0.996047,-0.087675,0.003907,0.007720,-0.012041,-13.613770,-35.799736,1.656311,,,,,,
1487811296.324740,0.168761,1.482043,0.563570,0.042191,-0.004372,-0.041096,0.014888,-0.996064,-0.087378,0.002675,0.000855,0.002279,-13.538757,-35.799843,1.656433,,,,,,
1487811296.344760,0.185656,1.483148,0.547449,0.064160,0.058460,-0.049344,0.016158,-0.996161,-0.086032,0.008134,-0.013284,0.001865,-13.239044,-35.874947,1.882233,,,,,,
1487811296.364749,0.206619,1.483752,0.527429,0.036574,0.034849,-0.040603,0.017835,-0.996214,-0.085085,0.017825,-0.014009,-0.002576,-13.689148,-35.874611,1.656586,,,,,,
1487811296.384768,0.220274,1.483635,0.514187,-0.007148,0.020629,-0.010703,0.019020,-0.996204,-0.084948,0.015495,-0.013867,-0.005110,-13.689148,-35.874611,1.656586,,,,,,
1487811296.404757,0.222843,1.482567,0.511809,-0.032586,-0.002954,-0.010477,0.019474,-0.996110,-0.085936,0.003201,0.007875,-0.013612,-13.612869,-35.649284,1.955566,,,,,,
1487811296.424777,0.221510,1.481442,0.512625,0.000639,-0.023892,-0.018636,0.019605,-0.996011,-0.087055,-0.000852,0.020913,-0.017803,-13.463013,-35.649956,1.655792,,,,,,
1487811296.444766,0.224428,1.481616,0.509065,0.043479,-0.037291,-0.047124,0.019821,-0.996026,-0.086829,-0.009689,0.032174,-0.008020,-13.462906,-35.649620,1.880768,,,,,,
1487811296.464785,0.231735,1.481904,0.500811,0.039315,-0.042610,-0.071577,0.020389,-0.996052,-0.086402,-0.022052,0.028187,-0.006356,-13.537979,-35.649727,1.730682,,,,,,
1487811296.484774,0.238750,1.482135,0.492659,0.012707,-0.052397,-0.068298,0.020940,-0.996072,-0.086033,-0.019826,0.009164,-0.000240,-13.537979,-35.649727,1.730682,,,,,,
1487811296.504794,0.245658,1.482294,0.485085,-0.010037,-0.010142,-0.053971,0.021495,-0.996086,-0.085733,-0.014278,0.000801,0.012613,-13.386520,-35.350075,1.654419,,,,,,
1487811296.524783,0.257381,1.482318,0.474059,-0.021255,0.052356,-0.017513,0.022493,-0.996088,-0.085452,0.014083,-0.015005,0.013339,-12.562531,-35.575966,1.881744,,,,,,
1487811296.544802,0.256165,1.481947,0.476247,-0.015925,0.039632,0.014669,0.022482,-0.996055,-0.085837,0.027597,-0.018150,-0.000665,-12.188217,-35.726311,2.033081,,,,,,
1487811296.564792,0.255224,1.481484,0.477492,-0.017704,-0.010284,0.017445,0.022518,-0.996014,-0.086304,0.021092,-0.005862,-0.007416,-13.088394,-35.725517,1.656738,,,,,,
1487811296.584811,0.252593,1.481419,0.478916,0.006381,-0.086488,-0.002807,0.022307,-0.996009,-0.086426,-0.002181,0.004508,-0.003342,-13.088394,-35.725517,1.656738,,,,,,
1487811296.604800,0.251209,1.482437,0.478693,0.049989,-0.063799,-0.013632,0.021935,-0.996099,-0.085475,-0.021295,-0.001750,0.016215,-13.313766,-35.800179,1.656769,,,,,,
1487811296.624820,0.260088,1.484024,0.469540,0.113395,0.019565,-0.018824,0.022287,-0.996238,-0.083749,-0.021722,-0.010369,0.049112,-13.012909,-35.650291,1.881439,,,,,,
1487811296.644809,0.275476,1.488007,0.455713,0.143493,0.129152,0.003277,0.022493,-0.996575,-0.079576,-0.004061,-0.024986,0.059603,-13.387299,-35.574059,2.330536,,,,,,
1487811296.664828,0.281703,1.489561,0.453706,0.014751,0.226746,0.012279,0.022558,-0.996702,-0.077947,0.011637,-0.007418,0.037405,-12.788528,-35.800285,2.107544,,,,,,
1487811296.684817,0.276950,1.487271,0.460836,-0.172662,0.031883,0.022846,0.022811,-0.996514,-0.080249,0.018128,-0.009239,-0.010144,-12.788528,-35.800285,2.107544,,,,,,
1487811296.704837,0.257787,1.483574,0.478581,-0.185513,-0.107298,0.023590,0.022208,-0.996199,-0.084234,0.002465,-0.002047,-0.006343,-13.088455,-35.799614,2.257080,,,,,,
1487811296.724826,0.238977,1.482017,0.495146,-0.032976,-0.105955,0.019764,0.020987,-0.996062,-0.086143,-0.022376,-0.001329,0.002326,-12.863663,-35.800514,1.882416,,,,,,
1487811296.744845,0.239730,1.483042,0.494297,0.087345,0.075583,0.003833,0.020810,-0.996152,-0.085136,-0.029416,-0.000171,0.029350,-13.163528,-35.799736,2.106995,,,,,,
1487811296.764834,0.241377,1.485043,0.495864,0.079198,0.166809,0.009017,0.020473,-0.996325,-0.083165,-0.020275,-0.000241,0.004247,-12.939667,-36.025063,2.108429,,,,,,
1487811296.784854,0.242694,1.486032,0.495856,0.031376,-0.005592,0.014369,0.020346,-0.996410,-0.082182,-0.007269,-0.001317,-0.025972,-12.939667,-36.025063,2.108429,,,,,,
1487811296.804843,0.237266,1.485870,0.499353,-0.013594,-0.125936,0.006240,0.019938,-0.996396,-0.082448,-0.000803,0.008862,-0.011439,-13.088440,-35.725624,1.581726,,,,,,
1487811296.824862,0.234531,1.485304,0.500220,-0.035392,-0.057111,-0.006469,0.019843,-0.996348,-0.083050,-0.012153,0.008860,0.012143,-13.088364,-35.725395,1.731720,,,,,,
1487811296.844851,0.234218,1.484675,0.501032,-0.048045,0.070172,-0.008191,0.019963,-0.996294,-0.083667,-0.004902,0.008974,0.013080,-13.313400,-35.725182,1.656403,,,,,,
1487811296.864871,0.235880,1.483883,0.501441,-0.014265,0.109725,0.011638,0.020286,-0.996225,-0.084400,0.006997,0.009104,-0.007717,-13.088608,-35.800072,1.957092,,,,,,
1487811296.884860,0.235537,1.483054,0.502157,0.056179,-0.053166,0.027845,0.020450,-0.996153,-0.085210,0.011578,0.014311,-0.032725,-13.088608,-35.800072,1.957092,,,,,,
1487811296.904879,0.232299,1.484659,0.502588,0.122100,-0.175747,0.038183,0.019806,-0.996292,-0.083720,0.002777,0.016114,-0.002675,-13.089142,-35.875511,1.657501,,,,,,
1487811296.924868,0.222753,1.488659,0.509019,0.131499,-0.143809,0.036744,0.018125,-0.996629,-0.080018,-0.016630,0.011353,0.034578,-13.313324,-35.724953,1.806396,,,,,,
1487811296.944888,0.217984,1.491276,0.513229,0.103236,0.065055,0.059488,0.017179,-0.996840,-0.077557,-0.013212,0.003249,0.065960,-13.463577,-35.799400,2.031555,,,,,,
1487811296.964877,0.205824,1.492023,0.529005,-0.072728,0.206830,0.061370,0.016083,-0.996899,-0.077031,-0.001663,0.012585,0.023625,-13.314102,-35.948936,2.482513,,,,,,
1487811296.984896,0.188089,1.489269,0.549304,-0.179267,0.048796,0.048231,0.015227,-0.996678,-0.080001,-0.000594,0.009679,-0.016419,-13.314102,-35.948936,2.482513,,,,,,
1487811297.004886,0.167662,1.485934,0.567897,-0.135018,-0.154605,0.013740,0.014145,-0.996401,-0.083572,-0.012222,0.014559,-0.013260,-13.162598,-35.575294,1.730865,,,,,,
1487811297.024905,0.168511,1.484470,0.564548,-0.027712,-0.072932,-0.042500,0.014460,-0.996276,-0.084998,-0.018580,0.005737,0.018469,-13.538651,-35.799507,1.881409,,,,,,
1487811297.044894,0.184676,1.485175,0.549275,0.032893,0.113404,-0.071463,0.015703,-0.996337,-0.084063,-0.003359,-0.001222,0.023440,-12.863739,-35.800743,1.732422,,,,,,
1487811297.064914,0.203023,1.485442,0.533234,0.011705,0.087727,-0.057318,0.017189,-0.996360,-0.083500,0.010307,-0.007486,-0.008236,-13.161728,-35.424965,1.955109,,,,,,
1487811297.084895,0.213982,1.484336,0.522003,-0.050152,-0.068889,-0.037294,0.018337,-0.996265,-0.084383,0.010746,-0.011243,-0.014845,-13.161728,-35.424965,1.955109,,,,,,
1487811297.104914,0.215131,1.482548,0.519041,-0.103431,-0.076787,-0.036275,0.018814,-0.996109,-0.086102,0.000641,-0.007431,-0.000446,-13.239487,-35.950172,1.732605,,,,,,
,,,,,,,,,,,,,,,,37.782420,-122.391528,11.980957,0.370000,300.937500,1487811297.002078
1487811297.124903,0.222859,1.480488,0.511338,-0.086169,0.051837,-0.058202,0.019933,-0.995925,-0.087956,0.002467,-0.004609,0.004948,-13.088684,-35.800285,1.807098,,,,,,
1487811297.144923,0.233119,1.479876,0.502763,0.025474,0.088879,-0.029576,0.020975,-0.995870,-0.088339,0.008398,-0.026195,0.001364,-12.938248,-35.725288,1.956940,,,,,,
1487811297.164912,0.242424,1.481076,0.495062,0.071319,0.074372,0.013397,0.021509,-0.995978,-0.086980,0.016852,-0.018060,-0.006786,-12.863815,-35.800972,1.582428,,,,,,
1487811297.184931,0.242775,1.481048,0.495330,-0.001703,-0.008016,0.016401,0.021546,-0.995975,-0.087000,0.004287,-0.000332,-0.017447,-12.863815,-35.800972,1.582428,,,,,,
1487811297.204920,0.233662,1.479556,0.503073,-0.049008,-0.094389,-0.011375,0.021097,-0.995840,-0.088638,-0.008020,0.006033,-0.012299,-13.390228,-36.099953,1.733154,,,,,,
1487811297.224940,0.231435,1.479018,0.503757,-0.008771,-0.047309,-0.026802,0.021022,-0.995791,-0.089206,-0.007365,-0.003278,0.003756,-13.014786,-36.025291,1.883331,,,,,,
1487811297.244929,0.237357,1.479924,0.498279,0.044818,0.062499,-0.020634,0.021338,-0.995874,-0.088204,-0.002310,-0.007208,0.006874,-12.862534,-35.575523,1.881317,,,,,,
1487811297.264948,0.247409,1.480472,0.489662,0.029854,0.060227,-0.005728,0.022090,-0.995924,-0.087455,0.012426,-0.006609,-0.008218,-12.937866,-35.650291,1.956573,,,,,,
1487811297.284937,0.252629,1.479192,0.484139,-0.025808,-0.066607,0.005365,0.022865,-0.995807,-0.088573,0.018899,-0.009823,-0.022694,-12.937866,-35.650291,1.956573,,,,,,
1487811297.304957,0.253417,1.478319,0.481346,-0.010606,-0.103632,0.003747,0.023152,-0.995727,-0.089396,0.010966,-0.008774,-0.002279,-13.164139,-35.875404,1.657379,,,,,,
1487811297.324946,0.257689,1.479560,0.475930,0.085897,-0.024228,0.000831,0.023219,-0.995841,-0.088101,0.003270,-0.010873,0.009915,-13.237839,-35.649727,2.031128,,,,,,
1487811297.344965,0.267659,1.482388,0.466217,0.122874,0.028118,-0.002959,0.023351,-0.996094,-0.085150,-0.000387,-0.008834,0.010778,-13.088364,-35.725395,1.731720,,,,,,
1487811297.364954,0.278346,1.484343,0.456107,0.075937,0.021317,0.016181,0.023725,-0.996265,-0.083022,0.012774,-0.009258,0.000320,-13.011703,-35.425072,2.030365,,,,,,
1487811297.384974,0.280324,1.484835,0.453413,0.006200,-0.072725,0.023607,0.023753,-0.996308,-0.082504,0.013844,0.003754,-0.002732,-13.011703,-35.425072,2.030365,,,,,,
1487811297.404963,0.277996,1.484773,0.454389,-0.023836,-0.050702,0.028546,0.023578,-0.996302,-0.082619,0.009152,0.002162,0.011360,-13.387405,-35.574394,2.105530,,,,,,
1487811297.424982,0.275313,1.485443,0.456667,0.030253,-0.006703,0.029178,0.023175,-0.996360,-0.082039,0.005359,0.008887,0.013558,-13.462830,-35.649391,2.030792,,,,,,
1487811297.444972,0.281893,1.487714,0.450834,0.109808,0.065143,0.008185,0.023085,-0.996551,-0.079711,0.003908,0.016860,0.019561,-13.388367,-35.724953,1.731262,,,,,,
1487811297.464991,0.297737,1.491025,0.436298,0.172856,0.057217,-0.006464,0.023377,-0.996820,-0.076181,0.006805,0.015207,0.011713,-13.087784,-35.649849,2.106354,,,,,,
1487811297.484980,0.314521,1.494815,0.419607,0.151044,-0.034301,0.025611,0.023483,-0.997115,-0.072185,0.005982,-0.001512,0.017314,-13.087784,-35.649849,2.106354,,,,,,
1487811297.505000,0.316309,1.497789,0.416541,0.006125,-0.061064,0.053287,0.022690,-0.997336,-0.069324,0.003693,0.009406,0.045551,-13.237381,-35.574501,2.180756,,,,,,
1487811297.524989,0.294530,1.498389,0.438950,-0.156023,0.094666,0.049734,0.021001,-0.997380,-0.069229,-0.018727,0.011647,0.050339,-13.386185,-35.349068,2.329407,,,,,,
1487811297.545008,0.274294,1.495031,0.462945,-0.187785,0.216491,0.028827,0.020503,-0.997131,-0.072863,-0.013301,0.010071,0.001330,-13.310364,-35.198952,2.478760,,,,,,
1487811297.564997,0.260669,1.491705,0.480057,-0.076150,0.121929,0.017598,0.020363,-0.996874,-0.076339,-0.000953,0.008623,-0.049149,-13.536774,-35.424522,1.879547,,,,,,
1487811297.585017,0.259918,1.491934,0.481528,0.048521,0.000953,0.000363,0.020247,-0.996892,-0.076135,-0.002089,0.010060,-0.041938,-13.536774,-35.424522,1.879547,,,,,,
1487811297.605006,0.265122,1.492959,0.476104,0.067823,-0.007354,-0.015466,0.020375,-0.996972,-0.075042,-0.005482,-0.001029,-0.012864,-13.310669,-35.199852,1.878754,,,,,,
1487811297.625025,0.270242,1.493655,0.471442,0.016156,0.049503,0.001763,0.020574,-0.997026,-0.074268,-0.002095,-0.015181,0.002170,-13.237198,-35.500069,1.805389,,,,,,
1487811297.645014,0.262354,1.493058,0.480743,-0.048105,0.072268,0.031144,0.020142,-0.996980,-0.075003,-0.003128,-0.007277,-0.010843,-13.461655,-35.424294,2.104645,,,,,,
1487811297.665034,0.253993,1.492277,0.489895,-0.035897,0.014003,0.014887,0.019709,-0.996919,-0.075922,-0.011439,0.010240,-0.022619,-13.537445,-35.574287,2.030304,,,,,,
1487811297.685023,0.250329,1.492192,0.493213,0.038089,-0.027781,-0.014197,0.019452,-0.996912,-0.076076,-0.014127,0.009363,-0.013158,-13.537445,-35.574287,2.030304,,,,,,
1487811297.705042,0.257838,1.493533,0.485270,0.081702,-0.012540,-0.011075,0.019682,-0.997017,-0.074635,-0.007444,0.000770,0.003910,-13.387482,-35.574623,1.955536,,,,,,
1487811297.725031,0.262242,1.495110,0.481082,0.036570,0.027394,0.005339,0.019603,-0.997137,-0.073029,-0.006099,-0.003168,0.016434,-13.161652,-35.424736,2.105103,,,,,,
1487811297.745051,0.252928,1.495057,0.490763,-0.050720,-0.005232,0.026867,0.018935,-0.997133,-0.073259,-0.006712,-0.004896,-0.000761,-13.612015,-35.498940,2.179810,,,,,,
1487811297.765040,0.232168,1.493914,0.510527,-0.072693,-0.058477,0.013681,0.017672,-0.997046,-0.074746,-0.020205,0.009360,0.002282,-13.761215,-35.348610,2.253815,,,,,,
1487811297.785059,0.221600,1.494035,0.520966,0.002432,0.038829,-0.016152,0.016855,-0.997055,-0.074811,-0.019220,0.010163,0.015729,-13.761215,-35.348610,2.253815,,,,,,
1487811297.805048,0.227702,1.495829,0.516893,0.109526,0.127887,-0.017005,0.016907,-0.997191,-0.072963,-0.005616,-0.000352,0.004299,-13.236710,-35.424736,2.030029,,,,,,
1487811297.825068,0.236291,1.497309,0.510019,0.080245,0.032052,0.017238,0.017188,-0.997301,-0.071381,0.005258,-0.008543,-0.016845,-13.461731,-35.424507,1.954651,,,,,,
1487811297.845057,0.226960,1.496484,0.518337,-0.089621,-0.075582,0.008586,0.016706,-0.997240,-0.072340,-0.004438,0.004351,-0.007250,-13.762787,-35.648827,2.105316,,,,,,
1487811297.865076,0.216588,1.493809,0.527856,-0.130546,-0.014344,-0.011534,0.016528,-0.997038,-0.075114,-0.002658,0.003553,-0.003591,-13.537109,-35.499397,1.954926,,,,,,
1487811297.885065,0.214105,1.492044,0.530914,-0.025413,0.051343,-0.018495,0.016716,-0.996901,-0.076875,-0.004478,-0.003435,-0.008086,-13.537109,-35.499397,1.954926,,,,,,
1487811297.905085,0.221854,1.492314,0.524719,0.053203,0.093431,-0.017764,0.017251,-0.996922,-0.076480,0.002173,-0.003032,-0.009305,-13.311371,-35.349739,1.954529,,,,,,
1487811297.925074,0.233863,1.492656,0.514553,0.055400,0.077510,-0.004764,0.018090,-0.996949,-0.075936,0.015739,-0.008880,-0.020195,-13.237915,-35.649956,1.881104,,,,,,
1487811297.945094,0.240200,1.492470,0.508126,0.042495,-0.056365,-0.007307,0.018615,-0.996934,-0.076000,0.010484,-0.001754,-0.024556,-13.312943,-35.649956,1.806030,,,,,,
1487811297.965083,0.240783,1.492779,0.505665,0.023542,-0.091564,-0.005826,0.018585,-0.996958,-0.075690,-0.002655,-0.003744,-0.001154,-13.612457,-35.574165,2.030212,,,,,,
1487811297.985102,0.245157,1.493531,0.500206,0.025224,-0.026789,-0.009883,0.018734,-0.997017,-0.074880,0.002628,-0.001274,0.012350,-13.612457,-35.574165,2.030212,,,,,,
1487811298.005091,0.251904,1.494668,0.493963,0.054536,0.045643,0.000966,0.018957,-0.997104,-0.073655,0.004420,-0.002194,0.007111,-13.012863,-35.650185,1.956451,,,,,,
1487811298.025111,0.255954,1.495703,0.490701,0.052472,0.033941,0.006446,0.018993,-0.997182,-0.072579,0.001514,0.003331,-0.002205,-13.686295,-35.348946,2.103943,,,,,,
1487811298.045100,0.257189,1.496467,0.489588,0.035747,-0.012914,0.005952,0.018889,-0.997239,-0.071818,-0.000365,0.007493,-0.000600,-13.387482,-35.574623,1.955536,,,,,,
1487811298.065119,0.259730,1.497488,0.486492,0.023042,-0.025768,0.009284,0.018810,-0.997314,-0.070786,0.003040,-0.005890,0.013672,-13.310913,-35.274513,2.104126,,,,,,
1487811298.085084,0.258398,1.497987,0.487848,-0.000692,0.009049,0.016215,0.018589,-0.997351,-0.070330,0.002270,0.000799,0.004442,-13.310913,-35.274513,2.104126,,,,,,
1487811298.105104,0.255181,1.497935,0.491300,-0.002829,0.012221,0.009768,0.018375,-0.997347,-0.070439,-0.001682,0.000536,-0.001720,-13.687561,-35.648277,2.555450,,,,,,
,,,,,,,,,,,,,,,,37.782420,-122.391528,11.963409,0.000000,297.070312,1487811298.002078
1487811298.125093,0.251305,1.497896,0.495239,-0.000646,-0.001577,0.025952,0.018112,-0.997344,-0.070548,0.001511,-0.004228,-0.000527,-13.612686,-35.648720,2.330566,,,,,,
1487811298.145112,0.238270,1.497557,0.508016,-0.034653,-0.017791,0.021816,0.017271,-0.997319,-0.071107,-0.012296,0.008229,-0.004760,-13.687683,-35.648613,2.330444,,,,,,
1487811298.165101,0.229244,1.496698,0.517024,-0.043340,0.014012,-0.005282,0.016823,-0.997256,-0.072094,-0.018089,0.012210,-0.001835,-13.537369,-35.574059,2.180298,,,,,,
1487811298.185121,0.224979,1.496343,0.522140,0.020322,0.065548,-0.020690,0.016594,-0.997230,-0.072510,-0.015633,0.011115,-0.008194,-13.537369,-35.574059,2.180298,,,,,,
1487811298.205110,0.228417,1.496747,0.520039,0.050159,0.058357,0.002961,0.016752,-0.997260,-0.072060,0.000826,-0.001977,-0.015388,-12.937912,-35.650414,1.881561,,,,,,
1487811298.225129,0.225721,1.496706,0.522807,0.023036,-0.036382,0.024403,0.016567,-0.997257,-0.072145,0.004658,-0.006116,-0.024443,-13.613220,-35.724174,2.030945,,,,,,
1487811298.245118,0.218763,1.496394,0.528378,0.012673,-0.073611,0.008872,0.016132,-0.997233,-0.072562,-0.004001,0.008769,-0.014123,-13.312408,-35.574501,2.105621,,,,,,
1487811298.265138,0.214879,1.497358,0.531553,0.069834,-0.008340,-0.003549,0.015645,-0.997305,-0.071685,-0.011174,0.011099,0.005996,-13.462708,-35.649055,2.255768,,,,,,
1487811298.285127,0.220204,1.499832,0.526666,0.107934,0.036586,-0.009360,0.015488,-0.997483,-0.069193,-0.008438,0.008912,0.013483,-13.462708,-35.649055,2.255768,,,,,,
1487811298.305146,0.225784,1.501613,0.521627,0.046192,0.015864,0.002473,0.015476,-0.997608,-0.067374,-0.001316,0.004184,0.007392,-13.762329,-35.573601,2.254944,,,,,,
1487811298.325135,0.224294,1.501615,0.522818,-0.032323,-0.038959,-0.002356,0.015375,-0.997608,-0.067395,-0.001871,0.005710,0.004422,-13.611481,-35.423500,2.479431,,,,,,
1487811298.345125,0.220647,1.500954,0.525278,-0.030022,-0.059102,-0.008477,0.015273,-0.997562,-0.068093,-0.004958,0.006275,0.005944,-13.385803,-35.274055,2.329041,,,,,,
1487811298.365144,0.222433,1.501419,0.523242,0.016348,0.026246,-0.024400,0.015293,-0.997594,-0.067614,-0.009555,0.009344,0.018145,-13.312042,-35.499504,2.105255,,,,,,
1487811298.385133,0.235422,1.502487,0.511707,0.032944,0.091142,-0.020952,0.015921,-0.997668,-0.066373,0.003732,0.000720,0.012312,-13.312042,-35.499504,2.105255,,,,,,
1487811298.405153,0.244525,1.502384,0.503554,0.001503,0.003787,0.003564,0.016549,-0.997661,-0.066325,0.016211,-0.004384,-0.015538,-13.761932,-35.498497,2.329590,,,,,,
1487811298.425142,0.241467,1.501270,0.505330,-0.047945,-0.099641,0.022913,0.016612,-0.997584,-0.067455,0.010686,0.003199,-0.012257,-13.685059,-35.123619,2.327820,,,,,,
1487811298.445161,0.230169,1.500186,0.514769,-0.060876,-0.078515,0.015127,0.016096,-0.997508,-0.068691,-0.002332,0.004405,0.007442,-13.312302,-35.574165,2.330627,,,,,,
1487811298.465150,0.224658,1.500140,0.519858,-0.021983,0.014215,-0.014777,0.015727,-0.997505,-0.068823,-0.012172,0.013694,0.022010,-13.761627,-35.423729,2.179230,,,,,,
1487811298.485170,0.230632,1.500489,0.514957,0.010708,0.070776,-0.023959,0.016059,-0.997529,-0.068390,-0.002692,0.006410,0.006424,-13.761627,-35.423729,2.179230,,,,,,
1487811298.505159,0.236411,1.500353,0.510317,-0.001954,0.036656,0.011642,0.016485,-0.997520,-0.068427,0.014032,-0.008736,-0.011407,-13.612122,-35.499275,1.954803,,,,,,
1487811298.525178,0.234294,1.499223,0.512306,-0.039885,-0.029497,0.011330,0.016602,-0.997440,-0.069558,0.010574,0.006046,-0.017707,-13.536621,-35.424065,2.179565,,,,,,
1487811298.545167,0.230364,1.497970,0.515395,-0.026944,-0.048490,0.006278,0.016614,-0.997349,-0.070840,0.002322,0.001881,-0.012565,-13.011490,-35.350517,1.729950,,,,,,
1487811298.565187,0.224571,1.497722,0.520388,0.010240,-0.026926,0.001840,0.016258,-0.997331,-0.071176,-0.009361,0.002840,-0.000891,-13.012161,-35.500298,1.880707,,,,,,
1487811298.585176,0.221444,1.498706,0.523622,0.042928,0.031766,-0.012691,0.015820,-0.997403,-0.070269,-0.018078,0.009289,0.010318,-13.012161,-35.500298,1.880707,,,,,,
1487811298.605195,0.227214,1.500202,0.518868,0.073719,0.052207,-0.012865,0.015889,-0.997509,-0.068723,-0.004262,0.001003,0.006437,-13.311707,-35.424629,2.029907,,,,,,
1487811298.625184,0.238548,1.501036,0.508086,0.034600,0.004090,-0.012349,0.016470,-0.997568,-0.067730,0.013254,0.000116,-0.006764,-13.536255,-35.349068,2.179169,,,,,,
1487811298.645204,0.242965,1.500384,0.502839,-0.059946,-0.054077,-0.000129,0.016926,-0.997522,-0.068288,0.010631,-0.005667,0.001042,-13.235474,-35.199394,2.253876,,,,,,
1487811298.665193,0.236855,1.499186,0.508384,-0.083746,-0.008641,0.003465,0.016789,-0.997437,-0.069551,-0.002674,-0.003524,0.014787,-13.235321,-35.198952,2.553894,,,,,,
1487811298.685212,0.232859,1.498441,0.512751,-0.031775,0.038540,-0.010869,0.016682,-0.997383,-0.070341,-0.007069,0.001580,0.006911,-13.235321,-35.198952,2.553894,,,,,,
1487811298.705201,0.232345,1.498220,0.514172,0.016228,0.040032,-0.017136,0.016697,-0.997368,-0.070564,-0.010334,0.006309,-0.009194,-13.461578,-35.424065,2.254639,,,,,,
1487811298.725221,0.234828,1.498604,0.512137,0.041887,0.027512,-0.008354,0.016783,-0.997395,-0.070150,-0.007429,0.005025,-0.004404,-13.612381,-35.573952,2.180206,,,,,,
1487811298.745210,0.237723,1.499988,0.510420,0.043695,0.074241,-0.010024,0.016661,-0.997494,-0.068759,-0.009581,0.008343,0.014865,-13.236145,-35.349174,2.404633,,,,,,
1487811298.765229,0.244590,1.500439,0.505008,-0.012717,0.066336,-0.029275,0.017024,-0.997526,-0.068207,-0.006236,0.008039,0.006180,-13.536209,-35.348946,2.254150,,,,,,
1487811298.785218,0.252905,1.499320,0.497882,-0.046784,0.066062,-0.051763,0.017870,-0.997447,-0.069144,-0.004350,0.009181,-0.002298,-13.536209,-35.348946,2.254150,,,,,,
1487811298.805238,0.269033,1.498046,0.482801,-0.004951,0.037778,-0.064068,0.019320,-0.997355,-0.070071,0.008619,0.000849,-0.018018,-13.536102,-35.348610,2.479156,,,,,,
1487811298.825227,0.284951,1.497944,0.467353,0.052701,0.017022,-0.034836,0.020461,-0.997347,-0.069852,0.005036,-0.015729,-0.014010,-13.237869,-35.649849,1.956116,,,,,,
1487811298.845247,0.298879,1.498594,0.453645,0.053692,0.019134,-0.016739,0.021241,-0.997395,-0.068941,0.010344,-0.012127,-0.004484,-13.011551,-35.424629,2.330353,,,,,,
1487811298.865236,0.307702,1.498870,0.445696,0.005344,0.060096,-0.001435,0.021766,-0.997414,-0.068489,0.011193,-0.012458,-0.004341,-13.386658,-35.424400,2.104767,,,,,,
1487811298.885255,0.311092,1.498130,0.443152,-0.006098,0.019656,-0.004143,0.022223,-0.997361,-0.069117,0.009683,-0.008453,-0.018911,-13.386658,-35.424400,2.104767,,,,,,
1487811298.905244,0.312840,1.497561,0.440999,0.025269,-0.040578,-0.007526,0.022519,-0.997319,-0.069619,0.001956,-0.005076,-0.021415,-13.312454,-35.574623,2.030640,,,,,,
1487811298.925264,0.316023,1.497855,0.436728,0.044575,-0.053140,-0.015836,0.022649,-0.997341,-0.069268,-0.002950,0.001049,-0.010963,-13.237015,-35.499504,2.180389,,,,,,
1487811298.945253,0.323268,1.498366,0.428953,0.023964,-0.006612,-0.014379,0.022989,-0.997378,-0.068619,0.001731,-0.006315,0.004578,-13.536285,-35.349174,2.104156,,,,,,
1487811298.965272,0.326637,1.498694,0.425593,0.018535,-0.004563,0.012236,0.023115,-0.997402,-0.068231,0.008318,-0.012852,-0.006095,-13.311295,-35.349510,2.104523,,,,,,
1487811298.985261,0.325329,1.498662,0.426024,0.026494,-0.070305,0.004593,0.023036,-0.997399,-0.068291,0.003271,0.003091,-0.014350,-13.311295,-35.349510,2.104523,,,,,,
1487811299.005281,0.326272,1.499251,0.423536,0.029695,-0.064956,-0.008265,0.022912,-0.997442,-0.067713,-0.005898,0.006368,0.006388,-13.311554,-35.424171,2.329895,,,,,,
1487811299.025270,0.333216,1.500647,0.416352,0.045047,0.027541,-0.011575,0.022926,-0.997541,-0.066237,-0.007164,0.002591,0.025938,-13.086288,-35.349846,2.104858,,,,,,
1487811299.045289,0.343786,1.502410,0.407199,0.056310,0.091328,-0.003853,0.023032,-0.997663,-0.064334,-0.001883,0.005887,0.020664,-13.162170,-35.574059,2.555878,,,,,,
1487811299.065278,0.350873,1.503273,0.401384,0.034351,0.027431,0.005462,0.023191,-0.997721,-0.063361,0.006014,0.001612,-0.006310,-13.160355,-35.199181,2.478973,,,,,,
1487811299.085284,0.352130,1.503089,0.399330,-0.006598,-0.064231,0.009750,0.023334,-0.997709,-0.063504,0.009655,0.000196,-0.003314,-13.160355,-35.199181,2.478973,,,,,,
1487811299.105273,0.349427,1.503156,0.401226,-0.019728,-0.015506,0.003731,0.023140,-0.997713,-0.063504,0.000100,0.001055,0.010419,-12.636139,-35.350075,2.405548,,,,,,
,,,,,,,,,,,,,,,,37.782411,-122.391549,11.955688,0.250000,237.304688,1487811299.002078
1487811299.125291,0.348243,1.503198,0.402856,-0.009401,0.036615,-0.007590,0.023050,-0.997716,-0.063492,-0.007517,0.002599,0.007889,-13.161179,-35.349403,2.329742,,,,,,
1487811299.145280,0.347877,1.502702,0.403943,-0.007192,0.028150,-0.014932,0.023196,-0.997682,-0.063966,-0.004458,0.004656,-0.012160,-13.086136,-35.349403,2.404877,,,,,,
1487811299.165300,0.350178,1.502092,0.401505,0.011341,-0.030080,-0.010910,0.023551,-0.997641,-0.064484,0.006600,-0.001093,-0.017532,-13.311218,-35.349281,2.254517,,,,,,
1487811299.185289,0.353871,1.502096,0.397017,0.019910,-0.038505,-0.004379,0.023788,-0.997641,-0.064393,0.001008,-0.001642,-0.004089,-13.311218,-35.349281,2.254517,,,,,,
1487811299.205308,0.356634,1.502458,0.393703,0.021941,-0.023623,-0.006702,0.023840,-0.997666,-0.063988,-0.002203,0.003632,0.001381,-13.160950,-35.348732,2.779755,,,,,,
1487811299.225297,0.357817,1.502607,0.392064,-0.006911,-0.019637,0.001694,0.023863,-0.997676,-0.063821,0.000291,0.003322,0.003930,-13.086060,-35.349174,2.554871,,,,,,
1487811299.245317,0.357169,1.502576,0.392160,-0.007905,-0.031329,0.007176,0.023833,-0.997674,-0.063866,0.002763,0.000970,0.005043,-13.086105,-35.349281,2.479858,,,,,,
1487811299.265306,0.352593,1.503012,0.396244,0.006971,-0.025898,0.015683,0.023390,-0.997704,-0.063565,-0.005095,0.003944,0.008756,-13.086731,-35.498940,2.705597,,,,,,
1487811299.285326,0.347518,1.503254,0.400644,-0.017513,-0.034610,0.022130,0.022985,-0.997720,-0.063456,0.000559,-0.002204,0.006053,-13.086731,-35.498940,2.705597,,,,,,
1487811299.305315,0.335478,1.502786,0.412051,-0.063416,-0.033963,0.034787,0.022373,-0.997688,-0.064170,0.003262,0.008049,0.008338,-12.635437,-35.200188,2.329773,,,,,,
1487811299.325335,0.321115,1.501634,0.425918,-0.070934,-0.019147,0.016440,0.021812,-0.997609,-0.065575,-0.003318,0.007955,0.002922,-13.534546,-35.048500,2.552673,,,,,,
1487811299.345324,0.310061,1.500942,0.436933,-0.026276,0.005675,0.003449,0.021296,-0.997561,-0.066469,-0.016551,0.006442,-0.003614,-13.612381,-35.573952,2.180206,,,,,,
1487811299.365344,0.310209,1.500913,0.436946,0.029237,0.009374,-0.023096,0.021315,-0.997559,-0.066494,-0.005278,0.015534,-0.007863,-13.086884,-35.499397,2.405609,,,,,,
1487811299.385332,0.321452,1.501177,0.425684,0.030399,-0.004417,-0.022912,0.021978,-0.997578,-0.066000,0.004359,0.003086,-0.003382,-13.086884,-35.499397,2.405609,,,,,,
1487811299.405351,0.326544,1.501001,0.420252,-0.027107,-0.028304,0.003893,0.022370,-0.997565,-0.066053,0.009628,-0.002664,-0.001528,-13.386292,-35.349403,2.104401,,,,,,
1487811299.425340,0.318064,1.499810,0.427913,-0.070725,-0.046738,0.009344,0.022181,-0.997482,-0.067369,-0.002115,0.004562,-0.001845,-13.535797,-35.273842,2.328796,,,,,,
1487811299.445360,0.309342,1.498745,0.435892,-0.044129,-0.027371,-0.014292,0.021916,-0.997405,-0.068572,-0.008274,0.012603,0.003249,-13.236038,-35.348839,2.629608,,,,,,
1487811299.465349,0.313744,1.498667,0.431516,0.027088,0.015739,-0.035982,0.022241,-0.997400,-0.068549,-0.005960,0.007288,0.000968,-13.086105,-35.349281,2.479858,,,,,,
1487811299.485368,0.329181,1.499067,0.416154,0.047546,-0.008494,-0.042005,0.023168,-0.997429,-0.067820,0.007273,-0.000695,-0.006506,-13.086105,-35.349281,2.479858,,,,,,
1487811299.505358,0.345890,1.499332,0.399173,0.015494,-0.009860,-0.020765,0.024208,-0.997447,-0.067174,0.015922,-0.008305,0.003149,-13.311432,-35.423836,2.554901,,,,,,
1487811299.525378,0.353363,1.498742,0.391620,-0.036876,-0.000780,-0.008254,0.024913,-0.997405,-0.067544,0.012150,-0.006104,-0.001350,-13.686554,-35.423622,2.329315,,,,,,
1487811299.545367,0.351872,1.497565,0.392905,-0.044268,-0.015719,0.001512,0.025217,-0.997320,-0.068683,0.007544,-0.005030,-0.008084,-13.386063,-35.348717,2.554413,,,,,,
1487811299.565386,0.348453,1.496978,0.396130,-0.016658,0.000444,0.002441,0.025182,-0.997277,-0.069319,-0.000707,0.002632,-0.000734,-13.236969,-35.499397,2.255371,,,,,,
1487811299.585374,0.347547,1.496565,0.397390,0.000296,0.017583,-0.004140,0.025259,-0.997246,-0.069729,0.002328,0.005272,-0.013126,-13.236969,-35.499397,2.255371,,,,,,
1487811299.605394,0.352246,1.496081,0.392614,0.009119,-0.023746,-0.003580,0.025753,-0.997210,-0.070062,0.011478,-0.006513,-0.012274,-13.536133,-35.348732,2.404175,,,,,,
1487811299.625383,0.354961,1.496411,0.389339,0.004754,-0.018498,0.017659,0.025829,-0.997235,-0.069684,0.008870,-0.005909,0.010754,-13.385239,-35.198494,2.703644,,,,,,
1487811299.645402,0.354275,1.497107,0.390226,0.003411,0.021834,0.016053,0.025540,-0.997286,-0.069050,0.000842,0.003390,0.017293,-12.936264,-35.349968,2.180084,,,,,,
1487811299.665391,0.352953,1.497255,0.392075,-0.011485,0.016394,0.018211,0.025398,-0.997297,-0.068946,0.004768,-0.005068,0.000434,-13.460510,-35.199181,2.178558,,,,,,
1487811299.685411,0.346155,1.497159,0.398552,-0.025042,-0.028318,0.025164,0.024961,-0.997290,-0.069207,0.000338,-0.000238,0.004967,-13.460510,-35.199181,2.178558,,,,,,
1487811299.705400,0.334691,1.497052,0.409762,-0.045489,-0.000887,0.021553,0.024201,-0.997282,-0.069589,-0.010011,0.003859,0.008966,-13.461258,-35.349174,2.179291,,,,,,
1487811299.725420,0.322782,1.496365,0.421904,-0.040241,0.019354,-0.000016,0.023588,-0.997231,-0.070522,-0.010633,0.009087,-0.004597,-13.237045,-35.499611,2.105377,,,,,,
1487811299.745409,0.320008,1.496044,0.425365,0.009667,0.049517,-0.000266,0.023493,-0.997207,-0.070891,-0.003291,-0.003113,-0.006273,-13.087402,-35.574837,2.105957,,,,,,
1487811299.765429,0.319828,1.496210,0.426580,0.046032,0.032846,0.003261,0.023428,-0.997220,-0.070738,-0.003210,0.000210,-0.018800,-13.087402,-35.574837,2.105957,,,,,,
1487811299.785418,0.321684,1.496674,0.424302,0.045587,-0.045696,-0.017023,0.023413,-0.997254,-0.070256,-0.005927,0.007188,-0.012828,-13.087402,-35.574837,2.105957,,,,,,
1487811299.805438,0.327092,1.497222,0.417958,0.019907,-0.034241,-0.017245,0.023617,-0.997295,-0.069611,-0.003720,-0.001073,0.010865,-12.935654,-35.274284,2.629700,,,,,,
1487811299.825427,0.332406,1.497888,0.412521,0.023882,0.007197,-0.017778,0.023770,-0.997343,-0.068856,-0.005383,0.002852,0.009439,-13.463058,-35.723946,2.331146,,,,,,
1487811299.845445,0.339207,1.498470,0.405804,0.012170,0.001779,-0.009206,0.024045,-0.997386,-0.068146,0.002475,-0.009252,0.007462,-13.237717,-35.649391,2.256104,,,,,,
1487811299.865434,0.341116,1.498270,0.403854,-0.021935,-0.007026,0.003603,0.024242,-0.997371,-0.068287,0.006337,-0.002354,0.000889,-13.236816,-35.498940,2.555389,,,,,,
1487811299.885454,0.340572,1.497989,0.404242,-0.002734,-0.007924,0.005796,0.024298,-0.997351,-0.068565,0.003915,-0.001245,0.001167,-13.236816,-35.498940,2.555389,,,,,,
1487811299.905443,0.343608,1.498461,0.401366,0.040837,0.014750,0.004548,0.024347,-0.997385,-0.068047,0.002310,0.000589,-0.000572,-13.311935,-35.499168,2.330261,,,,,,
1487811299.925462,0.348116,1.499357,0.397107,0.037678,0.008350,0.006754,0.024349,-0.997449,-0.067097,0.003864,-0.002352,0.002140,-12.936035,-35.349281,2.630066,,,,,,
1487811299.945451,0.347096,1.499154,0.397943,-0.028194,-0.029387,0.010258,0.024350,-0.997435,-0.067313,0.004474,0.001387,-0.005838,-13.236557,-35.424294,2.330017,,,,,,
1487811299.965472,0.339369,1.498392,0.404941,-0.048434,-0.035941,0.017751,0.024082,-0.997380,-0.068215,0.001278,-0.002376,0.003839,-13.537170,-35.573494,2.555298,,,,,,
1487811299.985461,0.332607,1.498172,0.411501,-0.007144,0.009012,0.013008,0.023692,-0.997364,-0.068584,-0.001872,0.006855,0.004497,-13.537170,-35.573494,2.555298,,,,,,
1487811300.005480,0.330610,1.499098,0.414209,0.046976,0.045576,0.019084,0.023255,-0.997431,-0.067757,-0.004303,0.004389,0.005791,-13.237228,-35.574059,2.480743,,,,,,
1487811300.025468,0.328850,1.500016,0.416786,0.021456,0.035801,0.017011,0.022840,-0.997496,-0.066931,-0.002240,0.010176,0.002402,-12.861633,-35.425072,2.180573,,,,,,
1487811300.045488,0.322867,1.499903,0.423020,-0.034735,-0.008207,0.009973,0.022475,-0.997488,-0.067174,-0.003706,0.008444,-0.001124,-13.161575,-35.424507,2.255096,,,,,,
1487811300.065477,0.313635,1.498557,0.431699,-0.066498,-0.041393,0.009255,0.022268,-0.997392,-0.068655,0.001033,0.000703,-0.009744,-13.311966,-35.499275,2.255249,,,,,,
1487811300.085501,0.303964,1.497543,0.440462,-0.030237,-0.037881,0.000788,0.021906,-0.997318,-0.069833,-0.010324,0.005726,-0.001609,-13.311966,-35.499275,2.255249,,,,,,
1487811300.105490,0.303107,1.497745,0.441325,0.029094,0.023165,-0.013708,0.021786,-0.997333,-0.069659,-0.005916,0.005664,0.001346,-13.236557,-35.424294,2.330017,,,,,,
,,,,,,,,,,,,,,,,37.782403,-122.391561,12.006256,0.450000,179.648438,1487811300.002079
1487811300.125510,0.311985,1.498336,0.433132,0.045014,0.034984,-0.017020,0.022222,-0.997376,-0.068902,0.001765,0.000061,-0.003990,-13.011429,-35.424294,2.555359,,,,,,
1487811300.145499,0.317674,1.498657,0.427449,0.012347,-0.022633,-0.011016,0.022514,-0.997399,-0.068471,0.000634,0.000558,-0.009135,-13.012253,-35.574501,2.406097,,,,,,
1487811300.165519,0.319647,1.498251,0.424808,-0.022796,-0.034628,-0.001365,0.022776,-0.997370,-0.068810,0.007513,-0.006353,0.002663,-13.313431,-35.799171,2.331757,,,,,,
1487811300.185508,0.317142,1.497817,0.426925,-0.034741,-0.009266,0.008926,0.022739,-0.997338,-0.069278,0.003674,-0.004157,0.005954,-13.313431,-35.799171,2.331757,,,,,,
1487811300.205527,0.314062,1.497396,0.429889,-0.013417,-0.008019,0.008964,0.022655,-0.997307,-0.069747,0.004002,-0.001258,-0.001618,-12.865005,-36.100060,2.183929,,,,,,
1487811300.225516,0.314451,1.497255,0.429360,0.014353,-0.008827,-0.002682,0.022725,-0.997297,-0.069872,0.002619,0.005552,-0.004408,-13.087631,-35.649391,2.406372,,,,,,
1487811300.245536,0.318996,1.497817,0.424753,0.030222,0.010422,-0.005025,0.022867,-0.997338,-0.069236,0.001364,0.002419,0.005897,-13.012299,-35.574623,2.331085,,,,,,
1487811300.265525,0.322386,1.498392,0.421960,0.003392,0.030350,0.003166,0.022920,-0.997380,-0.068614,-0.000596,-0.002345,0.006389,-12.937302,-35.574730,2.331207,,,,,,
1487811300.285544,0.320560,1.497876,0.423804,-0.027277,-0.012398,0.017500,0.022957,-0.997342,-0.069144,0.009346,-0.008502,-0.009652,-12.937302,-35.574730,2.331207,,,,,,
1487811300.305533,0.314963,1.497213,0.428912,-0.015462,-0.025038,0.018757,0.022774,-0.997294,-0.069900,0.008339,-0.003286,-0.006439,-13.086578,-35.424629,2.255219,,,,,,
1487811300.325553,0.312799,1.497407,0.430973,0.022776,0.002911,0.004630,0.022563,-0.997308,-0.069766,-0.001567,0.002634,0.000140,-13.162781,-35.649727,2.106232,,,,,,
1487811300.345542,0.316352,1.498344,0.427736,0.050366,0.026517,-0.004132,0.022520,-0.997377,-0.068797,-0.002638,0.002549,0.003443,-13.237686,-35.649284,2.331116,,,,,,
1487811300.365561,0.319518,1.499328,0.425266,0.025699,0.035833,0.019137,0.022430,-0.997447,-0.067793,0.003144,-0.007817,0.005568,-12.938065,-35.724724,2.331940,,,,,,
1487811300.385550,0.314308,1.499148,0.430946,-0.028489,0.005631,0.021511,0.022132,-0.997434,-0.068080,0.002099,0.002073,-0.006719,-12.938065,-35.724724,2.331940,,,,,,
1487811300.405570,0.303861,1.498108,0.440897,-0.038829,-0.036914,0.012449,0.021730,-0.997359,-0.069298,-0.002580,0.006393,-0.012779,-12.862305,-35.574852,2.331329,,,,,,
1487811300.425559,0.296897,1.497597,0.447223,-0.004797,-0.020685,0.004868,0.021396,-0.997322,-0.069934,-0.002230,0.006554,-0.003934,-13.086548,-35.424507,2.330231,,,,,,
1487811300.445578,0.296146,1.498249,0.448248,0.037519,0.032779,-0.007441,0.021153,-0.997370,-0.069329,-0.011739,0.005899,0.005165,-13.313065,-35.724174,2.331390,,,,,,
1487811300.465567,0.300250,1.498869,0.444914,0.026827,0.037999,-0.011802,0.021255,-0.997414,-0.068650,-0.003753,0.003777,-0.000686,-12.935989,-35.349174,2.705078,,,,,,
1487811300.485587,0.302286,1.498737,0.443054,0.006874,-0.012085,0.002669,0.021434,-0.997405,-0.068732,0.005284,-0.001558,-0.012811,-12.935989,-35.349174,2.705078,,,,,,
1487811300.505576,0.302397,1.498574,0.442183,0.008171,-0.047114,0.009528,0.021490,-0.997393,-0.068886,0.004877,0.000369,-0.004967,-13.162170,-35.574059,2.555878,,,,,,
1487811300.525565,0.300651,1.499357,0.443467,0.019598,-0.000294,0.000413,0.021138,-0.997449,-0.068177,-0.008367,0.005292,0.014695,-13.760834,-35.273613,2.253448,,,,,,
1487811300.545584,0.303941,1.500421,0.440813,0.024666,0.043290,-0.011872,0.021045,-0.997525,-0.067094,-0.008395,0.004971,0.015534,-13.311478,-35.423958,2.479889,,,,,,
1487811300.565573,0.311357,1.500909,0.434298,0.015048,0.044262,-0.006582,0.021393,-0.997559,-0.066473,0.006088,-0.001480,0.005987,-12.862335,-35.574959,2.256317,,,,,,
1487811300.585593,0.314491,1.501071,0.431756,-0.011502,0.018523,0.019269,0.021551,-0.997570,-0.066252,0.009272,-0.012043,0.002577,-12.862335,-35.574959,2.256317,,,,,,
1487811300.605582,0.306002,1.500542,0.440364,-0.046582,-0.001964,0.029035,0.021147,-0.997533,-0.066935,0.001482,-0.008814,-0.000265,-13.087372,-35.574730,2.180969,,,,,,
1487811300.625602,0.294507,1.499821,0.451869,-0.039142,0.007671,0.014002,0.020585,-0.997482,-0.067862,-0.005646,0.001495,-0.000558,-13.312332,-35.574287,2.255615,,,,,,
1487811300.645591,0.289163,1.499721,0.457673,0.009797,0.033601,-0.006453,0.020250,-0.997475,-0.068067,-0.011324,0.004052,0.002179,-13.011887,-35.499504,2.405731,,,,,,
1487811300.665610,0.292245,1.500231,0.455499,0.035273,0.047620,-0.000163,0.020313,-0.997511,-0.067518,-0.000294,-0.004671,-0.003787,-13.086182,-35.349510,2.329865,,,,,,
1487811300.685599,0.293431,1.500431,0.454988,0.017299,0.019849,0.011884,0.020336,-0.997525,-0.067302,0.004490,-0.004474,-0.011585,-13.086182,-35.349510,2.329865,,,,,,
1487811300.705619,0.289852,1.500357,0.458776,0.002423,0.006969,0.021608,0.020116,-0.997520,-0.067445,0.003093,-0.005791,-0.008086,-13.087296,-35.574501,2.330963,,,,,,
1487811300.725608,0.282304,1.500302,0.466225,0.001526,-0.016391,0.019784,0.019621,-0.997516,-0.067648,-0.002394,0.002887,-0.007837,-13.535797,-35.273842,2.328796,,,,,,
1487811300.745627,0.272775,1.499987,0.475010,-0.006824,-0.039810,0.012612,0.019060,-0.997494,-0.068134,-0.006136,0.005642,-0.009228,-13.311584,-35.424294,2.254883,,,,,,
1487811300.765616,0.264644,1.500133,0.482650,0.017487,-0.008807,0.010149,0.018468,-0.997504,-0.068147,-0.009953,0.004920,0.001084,-13.161652,-35.424736,2.105103,,,,,,
1487811300.785636,0.263537,1.501263,0.484225,0.057673,0.040381,0.007487,0.018099,-0.997584,-0.067079,-0.005770,0.004053,0.004503,-13.161652,-35.424736,2.105103,,,,,,
1487811300.805625,0.263412,1.502077,0.484713,0.032440,-0.011860,0.011309,0.017879,-0.997640,-0.066297,0.002125,0.005925,-0.009234,-13.611115,-35.348503,2.479065,,,,,,
1487811300.825644,0.256627,1.501996,0.490409,-0.009831,-0.066368,0.009785,0.017449,-0.997634,-0.066495,-0.006463,0.010284,-0.003116,-13.012222,-35.574394,2.481079,,,,,,
1487811300.845633,0.250802,1.502149,0.495142,-0.004654,-0.037643,-0.005503,0.017024,-0.997645,-0.066447,-0.010447,0.015497,0.012843,-13.310471,-35.199287,2.253754,,,,,,
1487811300.865653,0.252744,1.503408,0.493658,0.053338,0.059475,-0.011946,0.016838,-0.997730,-0.065198,-0.011589,0.009327,0.018033,-13.462372,-35.574165,2.180420,,,,,,
1487811300.885642,0.263159,1.504810,0.484675,0.070457,0.057514,-0.023597,0.017153,-0.997824,-0.063668,-0.003572,0.010809,-0.000602,-13.462372,-35.574165,2.180420,,,,,,
1487811300.905661,0.272584,1.505091,0.474972,0.015765,-0.052313,-0.016966,0.017677,-0.997842,-0.063234,0.008569,-0.000373,-0.011076,-13.760651,-35.273048,2.628448,,,,,,
1487811300.925650,0.276336,1.504604,0.469671,-0.032103,-0.079295,0.004573,0.018046,-0.997810,-0.063634,0.009023,-0.006523,0.003027,-13.460800,-35.273949,2.328918,,,,,,
1487811300.945670,0.275576,1.504316,0.469743,-0.033685,-0.004995,-0.000690,0.018076,-0.997791,-0.063925,0.001364,-0.000027,0.014883,-13.310364,-35.198952,2.478760,,,,,,
1487811300.965659,0.275401,1.504281,0.470534,0.004400,0.038863,-0.001163,0.018074,-0.997789,-0.063961,-0.001519,-0.001006,0.001141,-13.535004,-35.123726,2.403076,,,,,,
1487811300.985678,0.278598,1.504412,0.467424,0.026165,-0.016136,-0.013167,0.018243,-0.997797,-0.063778,-0.000344,0.004160,-0.007557,-13.535004,-35.123726,2.403076,,,,,,
1487811301.005667,0.282336,1.504690,0.463180,0.003828,-0.030147,0.000817,0.018404,-0.997816,-0.063443,0.002028,-0.004671,0.006070,-12.934982,-35.124519,2.478943,,,,,,
1487811301.025687,0.280359,1.505129,0.464708,-0.013380,-0.010130,0.003705,0.018157,-0.997845,-0.063058,-0.004119,0.000957,0.018594,-13.085831,-35.274620,2.254456,,,,,,
1487811301.045676,0.279120,1.505086,0.466400,-0.036130,0.038500,0.006193,0.018091,-0.997842,-0.063122,0.001852,-0.001182,0.014675,-13.236069,-35.348946,2.554626,,,,,,
1487811301.065696,0.277492,1.504242,0.468578,-0.037004,0.015144,-0.002037,0.018219,-0.997786,-0.063961,0.005951,0.001158,-0.008274,-13.535004,-35.123726,2.403076,,,,,,
1487811301.085670,0.276976,1.503218,0.469131,-0.029431,-0.002844,0.003547,0.018465,-0.997717,-0.064953,0.006361,-0.004327,-0.010227,-13.535004,-35.123726,2.403076,,,,,,
1487811301.105689,0.275128,1.502735,0.471089,-0.009291,0.012189,0.007666,0.018476,-0.997685,-0.065451,0.004397,-0.002498,-0.006281,-13.461182,-35.348946,2.329285,,,,,,
,,,,,,,,,,,,,,,,37.782396,-122.391568,12.044617,0.450000,181.054688,1487811301.002079
1487811301.125677,0.274808,1.502487,0.471702,0.008859,0.012356,-0.000819,0.018522,-0.997668,-0.065695,0.002352,0.001391,-0.010035,-13.310059,-35.124184,2.328400,,,,,,
1487811301.145697,0.276042,1.502335,0.470487,0.021814,-0.008759,-0.004770,0.018645,-0.997657,-0.065818,0.001558,0.003715,-0.013466,-13.535080,-35.123955,2.253052,,,,,,
1487811301.165686,0.278377,1.502559,0.467570,0.025201,-0.034205,-0.007622,0.018737,-0.997673,-0.065559,-0.000747,0.003303,-0.005897,-13.535751,-35.273720,2.403809,,,,,,
1487811301.185705,0.280262,1.502797,0.465323,-0.002699,-0.008965,-0.012299,0.018795,-0.997689,-0.065296,-0.004162,0.002389,0.004490,-13.535751,-35.273720,2.403809,,,,,,
1487811301.205694,0.282384,1.502743,0.463261,0.000343,0.011229,-0.008289,0.018948,-0.997685,-0.065307,-0.001629,0.000676,0.001221,-12.934937,-35.124397,2.553955,,,,,,
1487811301.225714,0.284798,1.502827,0.460999,0.013143,0.003891,0.008903,0.019082,-0.997691,-0.065182,0.005698,-0.000005,-0.003544,-12.860062,-35.124855,2.329071,,,,,,
1487811301.245703,0.285745,1.503135,0.459988,0.014283,-0.001396,-0.002757,0.019057,-0.997712,-0.064868,0.000947,0.007508,0.000399,-13.386185,-35.349068,2.329407,,,,,,
1487811301.265723,0.288424,1.503102,0.457286,-0.002766,-0.002603,-0.005992,0.019241,-0.997710,-0.064849,0.004990,0.001356,-0.001420,-13.460007,-35.123833,2.403168,,,,,,
1487811301.285712,0.291206,1.502986,0.454358,0.003662,-0.007859,-0.002709,0.019454,-0.997702,-0.064906,0.003388,0.001684,-0.000982,-13.460007,-35.123833,2.403168,,,,,,
1487811301.305732,0.294046,1.503213,0.451441,0.016404,0.000745,-0.003856,0.019573,-0.997717,-0.064633,0.000600,0.005285,0.004666,-13.310837,-35.274284,2.254120,,,,,,
1487811301.325721,0.300243,1.503698,0.445168,0.033566,-0.008651,-0.012217,0.019830,-0.997750,-0.064048,0.002525,0.004921,0.002723,-13.309937,-35.123833,2.553406,,,,,,
1487811301.345739,0.310258,1.504622,0.434864,0.042132,-0.010697,-0.015368,0.020189,-0.997811,-0.062969,0.004454,0.006341,0.010479,-13.534592,-35.048622,2.477661,,,,,,
1487811301.365728,0.321618,1.505807,0.423683,0.030207,0.013605,-0.005064,0.020529,-0.997889,-0.061614,0.003748,-0.000799,0.021483,-12.784973,-35.124733,2.479187,,,,,,
1487811301.385748,0.326680,1.506149,0.419004,-0.032783,0.021542,-0.001090,0.020731,-0.997911,-0.061186,0.003759,0.001421,0.012938,-12.784973,-35.124733,2.479187,,,,,,
1487811301.405737,0.322604,1.504899,0.423509,-0.082899,0.014719,0.010579,0.020877,-0.997830,-0.062453,0.009473,-0.002842,-0.002351,-13.086426,-35.424171,2.555237,,,,,,
1487811301.425756,0.316263,1.503359,0.429947,-0.043361,0.003382,0.011897,0.020958,-0.997727,-0.064044,0.007408,0.002823,-0.007184,-13.159668,-35.049400,2.328247,,,,,,
1487811301.445745,0.313832,1.503296,0.432884,0.036392,0.039117,0.005249,0.020822,-0.997723,-0.064155,-0.002267,0.010601,-0.005913,-13.460800,-35.273949,2.328918,,,,,,
1487811301.465765,0.321678,1.504572,0.425893,0.076949,0.045866,-0.019253,0.020922,-0.997808,-0.062781,-0.004397,0.009588,-0.001031,-13.311142,-35.349068,2.404541,,,,,,
1487811301.485754,0.336549,1.505291,0.411746,0.034480,0.021083,-0.025449,0.021616,-0.997855,-0.061786,0.005773,0.008338,-0.002408,-13.311142,-35.349068,2.404541,,,,,,
1487811301.505774,0.341938,1.505105,0.405987,-0.028077,-0.035742,-0.012078,0.022011,-0.997843,-0.061844,0.003105,0.001765,0.003372,-12.935440,-35.199730,2.329346,,,,,,
1487811301.525764,0.336651,1.504152,0.410434,-0.071796,-0.042506,0.000685,0.021998,-0.997780,-0.062857,0.001485,0.004875,0.003241,-12.934677,-35.049736,2.328583,,,,,,
1487811301.545783,0.327377,1.502610,0.419279,-0.078403,-0.019221,0.012087,0.021909,-0.997676,-0.064515,0.003222,-0.002736,-0.006164,-13.310806,-35.274178,2.329132,,,,,,
1487811301.565772,0.322181,1.501085,0.423977,-0.038821,-0.031606,0.000624,0.022055,-0.997571,-0.066071,-0.004309,0.004514,-0.012878,-13.086548,-35.424507,2.330231,,,,,,
1487811301.585791,0.325251,1.500786,0.420252,0.029484,-0.028867,-0.020551,0.022353,-0.997550,-0.066285,0.006822,0.012626,-0.005843,-13.086548,-35.424507,2.330231,,,,,,
1487811301.605780,0.330151,1.501437,0.414454,0.061671,-0.057250,-0.016872,0.022467,-0.997596,-0.065561,-0.010291,-0.008447,-0.013144,-12.937180,-35.574394,2.556213,,,,,,
1487811301.625799,0.329194,1.501897,0.413335,0.014074,-0.117123,-0.007674,0.022256,-0.997627,-0.065148,-0.003412,0.005623,-0.003807,-13.011032,-35.349174,2.629944,,,,,,
1487811301.645788,0.328434,1.502478,0.412671,-0.006831,-0.032387,0.003950,0.022020,-0.997667,-0.064616,-0.007341,-0.004240,0.021129,-13.085648,-35.274055,2.629456,,,,,,
1487811301.665808,0.331881,1.503467,0.410169,0.007197,0.089806,0.016228,0.021921,-0.997734,-0.063607,0.009405,-0.004997,0.027978,-13.085052,-35.124519,2.328735,,,,,,
1487811301.685797,0.327942,1.502604,0.415588,-0.056306,0.031950,-0.010922,0.021947,-0.997676,-0.064508,0.006007,0.010005,-0.012030,-13.085052,-35.124519,2.328735,,,,,,
1487811301.705817,0.326646,1.502007,0.416887,-0.014562,0.002566,0.014118,0.022055,-0.997635,-0.065101,-0.000998,-0.013367,0.007041,-12.936111,-35.349510,2.480072,,,,,,
1487811301.725806,0.319909,1.502269,0.423223,0.028420,-0.043774,0.020191,0.021534,-0.997653,-0.065000,-0.004429,0.004092,-0.008563,-13.310318,-35.198830,2.553772,,,,,,
1487811301.745826,0.312718,1.502906,0.429069,0.018978,-0.066149,0.021536,0.020870,-0.997696,-0.064548,-0.005871,-0.004852,0.001987,-13.312225,-35.573952,2.480621,,,,,,
1487811301.765815,0.303281,1.503568,0.437544,0.000591,-0.036599,0.037094,0.020063,-0.997741,-0.064112,-0.003019,-0.010148,0.013819,-12.786057,-35.349617,2.555298,,,,,,
1487811301.785833,0.293888,1.503847,0.446984,-0.023295,0.025835,0.027664,0.019379,-0.997760,-0.064031,0.004089,0.005725,0.006658,-12.786057,-35.349617,2.555298,,,,,,
1487811301.805822,0.285935,1.502503,0.454890,-0.026009,-0.044260,0.029641,0.019248,-0.997669,-0.065470,0.008661,-0.000470,-0.026541,-13.086060,-35.349174,2.554871,,,,,,
1487811301.825842,0.270515,1.502517,0.468256,0.061977,-0.123123,0.042674,0.018232,-0.997670,-0.065745,-0.007169,-0.007869,-0.017263,-13.312225,-35.573952,2.480621,,,,,,
1487811301.845831,0.261060,1.504752,0.474943,0.123991,-0.137426,0.027053,0.017034,-0.997820,-0.063760,-0.005514,0.000185,-0.002082,-13.236115,-35.349068,2.479614,,,,,,
1487811301.865850,0.262344,1.507217,0.471892,0.084997,-0.057091,0.032274,0.016478,-0.997979,-0.061363,0.002229,-0.003348,0.011528,-13.085571,-35.273842,2.779480,,,,,,
1487811301.885839,0.256838,1.508607,0.476837,0.029327,-0.025723,0.025296,0.015787,-0.998067,-0.060110,0.002569,0.009465,0.003592,-13.085571,-35.273842,2.779480,,,,,,
1487811301.905859,0.263844,1.507985,0.469024,-0.005587,-0.049348,-0.016105,0.016370,-0.998028,-0.060598,0.016970,0.006146,-0.016367,-13.234756,-35.123390,2.928497,,,,,,
1487811301.925848,0.281577,1.507768,0.451365,0.021486,0.042183,-0.019403,0.017502,-0.998014,-0.060506,0.015670,-0.006655,0.001516,-13.310577,-35.273506,2.779144,,,,,,
1487811301.945868,0.275663,1.508845,0.457464,0.069967,-0.046618,0.035255,0.016852,-0.998082,-0.059575,-0.021017,0.005375,-0.007991,-13.084595,-35.049294,2.478363,,,,,,
1487811301.965858,0.261721,1.510473,0.469549,0.053932,-0.063796,0.089836,0.015599,-0.998181,-0.058234,0.025341,0.058621,0.009863,-13.310211,-35.198494,2.778778,,,,,,
1487811301.985877,0.234350,1.511554,0.496148,0.005874,-0.041889,0.056348,0.013749,-0.998246,-0.057590,-0.039643,-0.034576,0.006778,-13.310211,-35.198494,2.778778,,,,,,
1487811302.005866,0.225822,1.511110,0.503410,-0.046227,-0.046548,0.012531,0.013356,-0.998219,-0.058137,-0.005483,0.019551,0.017670,-13.309708,-35.123161,3.003387,,,,,,
1487811302.025886,0.213554,1.510407,0.516252,-0.064141,0.063686,0.029151,0.012791,-0.998177,-0.058982,-0.008335,-0.000892,0.006477,-13.010010,-35.198387,3.154236,,,,,,
1487811302.045874,0.204921,1.509162,0.525706,-0.065787,0.006368,0.006442,0.012534,-0.998101,-0.060307,-0.004966,0.012811,-0.016994,-13.084930,-35.124168,2.553741,,,,,,
1487811302.065893,0.201443,1.507661,0.528534,-0.057901,-0.038117,-0.027071,0.012624,-0.998008,-0.061818,-0.002919,0.009360,-0.009975,-13.233704,-34.898613,2.777405,,,,,,
1487811302.085869,0.209764,1.506857,0.519514,-0.017359,-0.033502,-0.040882,0.013305,-0.997957,-0.062495,0.003602,0.004869,-0.003209,-13.233704,-34.898613,2.777405,,,,,,
1487811302.105889,0.221425,1.506584,0.507224,0.008211,-0.036481,-0.024776,0.014093,-0.997939,-0.062602,0.009818,-0.006486,-0.006917,-13.460953,-35.348274,2.779297,,,,,,
,,,,,,,,,,,,,,,,37.782393,-122.391584,12.065063,0.400000,181.054688,1487811302.002079
1487811302.125878,0.223975,1.506762,0.503824,0.009263,-0.044989,0.000938,0.014213,-0.997950,-0.062393,0.008462,-0.005178,-0.003586,-13.459183,-34.973610,2.552429,,,,,,
1487811302.145897,0.223354,1.507241,0.503624,-0.000441,-0.030212,0.002850,0.014068,-0.997981,-0.061935,-0.002594,0.002589,0.010956,-13.161057,-35.349068,2.554749,,,,,,
1487811302.165886,0.225305,1.507169,0.501280,-0.019669,-0.018686,-0.014424,0.014205,-0.997976,-0.061977,0.000444,0.003546,0.009639,-13.011322,-35.423958,2.780365,,,,,,
1487811302.185906,0.227748,1.506915,0.498639,-0.037926,-0.001863,-0.010431,0.014414,-0.997960,-0.062190,-0.001673,-0.004451,0.011164,-13.011322,-35.423958,2.780365,,,,,,
1487811302.205895,0.226256,1.506706,0.500437,-0.040374,0.034190,0.011483,0.014368,-0.997947,-0.062415,-0.001154,-0.012078,0.015417,-12.785446,-35.273949,3.004913,,,,,,
1487811302.225914,0.219625,1.506813,0.508704,-0.039813,0.095742,0.036262,0.013930,-0.997954,-0.062404,0.003907,-0.016222,0.016169,-12.634933,-35.124855,2.554413,,,,,,
1487811302.245903,0.212357,1.505727,0.517465,-0.061812,0.047793,0.018697,0.013705,-0.997884,-0.063563,0.004774,0.002995,-0.009252,-13.085205,-35.198830,2.779114,,,,,,
1487811302.265923,0.202569,1.504129,0.527373,-0.048589,-0.013669,0.022747,0.013403,-0.997779,-0.065256,-0.000356,-0.003671,-0.012228,-13.460205,-35.198280,2.778564,,,,,,
1487811302.285912,0.189000,1.503493,0.540785,-0.020993,0.001429,0.030098,0.012635,-0.997736,-0.066055,-0.003587,-0.005133,-0.001953,-13.460205,-35.198280,2.778564,,,,,,
1487811302.305931,0.177057,1.503453,0.553638,-0.023624,0.073606,0.021679,0.011853,-0.997733,-0.066241,-0.010876,0.001151,0.007708,-13.461060,-35.348610,2.554291,,,,,,
1487811302.325920,0.165437,1.503074,0.566688,-0.002101,0.049389,0.015680,0.011144,-0.997708,-0.066747,-0.010198,0.002209,-0.013148,-13.310989,-35.348610,2.704529,,,,,,
1487811302.345940,0.160247,1.502972,0.572298,0.038733,0.013674,-0.002916,0.010814,-0.997701,-0.066904,-0.008434,0.006551,-0.013067,-13.684830,-35.122948,2.777832,,,,,,
1487811302.365929,0.159769,1.503833,0.573019,0.050515,0.012735,-0.018853,0.010645,-0.997759,-0.066061,-0.009882,0.005266,-0.004114,-13.535233,-35.198280,2.703430,,,,,,
1487811302.385949,0.164071,1.504050,0.569083,-0.011451,0.022802,-0.010626,0.010894,-0.997773,-0.065801,0.000871,-0.004165,0.002080,-13.535233,-35.198280,2.703430,,,,,,
1487811302.405938,0.162315,1.502969,0.571279,-0.070137,0.019090,0.004185,0.010953,-0.997701,-0.066884,0.000751,-0.007106,-0.003703,-13.384933,-35.123726,2.553284,,,,,,
1487811302.425957,0.157915,1.501531,0.575910,-0.045511,0.005505,0.004436,0.010884,-0.997602,-0.068349,-0.001561,-0.001635,-0.005672,-13.233810,-34.898949,2.552399,,,,,,
1487811302.445946,0.156442,1.501436,0.577584,0.030244,0.007243,-0.008163,0.010798,-0.997596,-0.068458,-0.004069,0.001578,-0.001747,-13.235886,-35.348381,2.929626,,,,,,
1487811302.465966,0.161853,1.502145,0.572252,0.047405,0.004235,-0.033663,0.011054,-0.997644,-0.067701,-0.008674,0.006113,-0.001528,-13.609680,-35.048729,2.327576,,,,,,
1487811302.485955,0.172619,1.502720,0.561701,0.014164,0.019847,-0.012639,0.011684,-0.997684,-0.067012,0.006444,-0.006741,0.004162,-13.609680,-35.048729,2.327576,,,,,,
1487811302.505974,0.175690,1.502565,0.558800,-0.024156,-0.002813,0.016337,0.011917,-0.997673,-0.067129,0.010865,-0.010963,-0.001566,-13.159927,-35.124062,2.553619,,,,,,
1487811302.525963,0.171203,1.501841,0.562843,-0.021776,-0.037828,0.017867,0.011738,-0.997624,-0.067893,0.003612,-0.004406,-0.008614,-13.310608,-35.273613,2.704132,,,,,,
1487811302.545983,0.167627,1.501954,0.565605,0.029418,-0.030996,0.002991,0.011477,-0.997631,-0.067824,-0.001482,0.002529,0.002456,-13.760727,-35.273277,2.478455,,,,,,
1487811302.565972,0.169489,1.503673,0.563945,0.081219,0.036343,-0.002014,0.011314,-0.997748,-0.066112,-0.007102,0.003150,0.014751,-13.009262,-34.974510,2.403107,,,,,,
1487811302.585991,0.174585,1.505904,0.560125,0.077745,0.072399,0.006032,0.011264,-0.997895,-0.063861,0.000668,0.003510,0.012363,-13.009262,-34.974510,2.403107,,,,,,
1487811302.605980,0.177111,1.506631,0.558288,0.004676,-0.000431,0.006782,0.011297,-0.997942,-0.063118,0.007105,0.006533,-0.003487,-13.310318,-35.198830,2.553772,,,,,,
1487811302.626000,0.177247,1.505797,0.557336,-0.055714,-0.055099,0.003058,0.011453,-0.997888,-0.063936,0.005912,0.005396,0.002550,-13.085281,-35.199059,2.629089,,,,,,
1487811302.645989,0.176536,1.504914,0.557239,-0.051577,-0.028504,-0.016483,0.011562,-0.997831,-0.064811,0.000523,0.009320,0.008613,-13.611328,-35.423058,2.779449,,,,,,
1487811302.666008,0.181252,1.504424,0.552769,-0.022197,0.039696,-0.018370,0.011956,-0.997798,-0.065238,-0.000618,0.003566,0.008276,-13.085007,-35.124397,2.403748,,,,,,
1487811302.685997,0.187565,1.504279,0.547892,0.002026,0.078114,-0.008149,0.012394,-0.997789,-0.065303,0.003689,0.004624,-0.002828,-13.085007,-35.124397,2.403748,,,,,,
1487811302.706017,0.192222,1.503743,0.544084,0.007779,0.014455,0.002298,0.012800,-0.997753,-0.065769,0.013140,0.005962,-0.019101,-13.460983,-35.348381,2.704285,,,,,,
1487811302.726006,0.195615,1.503373,0.540102,0.014606,-0.046000,0.002038,0.013095,-0.997728,-0.066088,0.009137,0.005800,-0.013777,-13.310684,-35.273842,2.554138,,,,,,
1487811302.745995,0.198357,1.503229,0.536459,-0.010985,-0.040901,-0.014105,0.013305,-0.997718,-0.066192,-0.000457,0.009910,0.001175,-13.759933,-35.123161,2.552734,,,,,,
1487811302.766014,0.200189,1.502928,0.534166,-0.024019,-0.002782,-0.027438,0.013486,-0.997698,-0.066462,-0.008816,0.008745,0.008540,-13.762756,-35.648720,2.180328,,,,,,
1487811302.786003,0.206988,1.502964,0.528253,-0.017077,0.069465,-0.024105,0.013930,-0.997700,-0.066333,-0.001967,0.001225,0.012866,-13.762756,-35.648720,2.180328,,,,,,
1487811302.806023,0.213867,1.502657,0.522605,-0.007338,0.040863,-0.001307,0.014451,-0.997679,-0.066536,0.008895,-0.007325,-0.006050,-13.235443,-35.199287,2.328888,,,,,,
1487811302.826012,0.210462,1.501834,0.526011,-0.044296,-0.017864,0.014292,0.014396,-0.997623,-0.067387,0.003121,-0.008328,-0.006175,-13.534698,-35.122826,3.003052,,,,,,
1487811302.846032,0.205994,1.500557,0.530098,-0.061320,-0.014807,-0.008196,0.014355,-0.997534,-0.068698,-0.002545,0.003119,-0.002286,-13.086182,-35.349510,2.329865,,,,,,
1487811302.866021,0.207133,1.499829,0.528852,-0.000613,-0.000470,-0.013544,0.014583,-0.997483,-0.069392,0.000310,-0.001861,-0.006810,-13.236221,-35.349403,2.254608,,,,,,
1487811302.886040,0.212260,1.500593,0.524010,0.052508,0.027593,-0.010563,0.014778,-0.997537,-0.068571,-0.001991,-0.004447,0.003844,-13.236221,-35.349403,2.254608,,,,,,
1487811302.906029,0.217848,1.501775,0.519225,0.040650,0.043410,-0.005470,0.014906,-0.997619,-0.067337,-0.001097,-0.002015,0.005920,-13.086136,-35.349403,2.404877,,,,,,
1487811302.926049,0.217655,1.501907,0.519750,-0.010225,-0.005879,0.005704,0.014864,-0.997628,-0.067211,-0.000063,-0.005241,-0.004307,-13.461060,-35.348610,2.554291,,,,,,
1487811302.946038,0.211609,1.501159,0.525019,-0.049329,-0.052923,-0.001244,0.014614,-0.997576,-0.068029,-0.006710,0.000567,-0.000956,-13.611191,-35.348732,2.329071,,,,,,
1487811302.966057,0.205989,1.500373,0.529884,-0.041015,-0.015675,-0.017698,0.014392,-0.997521,-0.068878,-0.011218,0.002404,0.008087,-13.311554,-35.424171,2.329895,,,,,,
1487811302.986046,0.208150,1.500606,0.528342,0.022411,0.063439,-0.016422,0.014493,-0.997538,-0.068619,-0.009213,-0.006399,0.008881,-13.311554,-35.424171,2.329895,,,,,,
1487811303.006066,0.215814,1.501229,0.521951,0.059893,0.043601,-0.020316,0.014885,-0.997581,-0.067899,0.002418,-0.001122,-0.016116,-13.086182,-35.349510,2.329865,,,,,,
1487811303.026055,0.225392,1.501238,0.512024,0.011508,-0.050239,-0.023482,0.015533,-0.997582,-0.067744,0.006562,-0.001198,-0.013783,-13.386856,-35.498833,2.480133,,,,,,
1487811303.046074,0.229917,1.500698,0.506204,-0.026869,-0.060146,-0.007470,0.015962,-0.997544,-0.068198,0.006163,-0.003524,0.005836,-12.786133,-35.349846,2.405304,,,,,,
1487811303.066063,0.231505,1.500793,0.504309,-0.005000,0.012228,-0.003038,0.016049,-0.997551,-0.068080,0.001102,0.001213,0.010936,-13.010086,-35.124733,2.253845,,,,,,
1487811303.086072,0.236525,1.501302,0.500016,0.037490,0.043402,-0.019327,0.016271,-0.997586,-0.067506,-0.003652,0.009137,-0.000579,-13.010086,-35.124733,2.253845,,,,,,
,,,,,,,,,,,,,,,,37.782393,-122.391584,12.115784,0.000000,181.054688,1487811303.002079
1487811303.106061,0.248716,1.501435,0.488102,0.025106,-0.009775,-0.031462,0.017060,-0.997595,-0.067173,0.007247,0.004019,-0.009701,-13.310654,-35.273720,2.629120,,,,,,
1487811303.126080,0.259645,1.501288,0.476029,-0.005471,-0.071650,0.000183,0.017831,-0.997585,-0.067124,0.015799,-0.005985,0.001801,-13.386429,-35.423729,2.554779,,,,,,
1487811303.146069,0.256291,1.501266,0.478452,-0.033548,-0.031575,0.020897,0.017611,-0.997584,-0.067205,0.001386,0.003733,0.016027,-13.236557,-35.424294,2.330017,,,,,,
1487811303.166089,0.247716,1.501159,0.487139,-0.027528,0.021559,0.021280,0.017061,-0.997576,-0.067457,-0.005571,0.006060,0.009031,-13.386032,-35.348610,2.629395,,,,,,
1487811303.186078,0.242464,1.500979,0.492807,0.007784,0.014459,0.000151,0.016749,-0.997564,-0.067721,-0.004573,0.009038,-0.004942,-13.386032,-35.348610,2.629395,,,,,,
1487811303.206097,0.242857,1.501068,0.492255,0.021913,-0.017252,-0.012182,0.016755,-0.997570,-0.067628,-0.004120,0.009151,-0.006896,-13.462173,-35.573601,2.555420,,,,,,
1487811303.226086,0.244493,1.501416,0.490253,0.011222,-0.014160,-0.011180,0.016781,-0.997594,-0.067263,-0.005489,0.002858,0.003390,-13.161423,-35.424065,2.555115,,,,,,
1487811303.246106,0.243912,1.501407,0.490991,-0.016769,0.016370,0.001137,0.016744,-0.997594,-0.067281,-0.002996,0.002171,0.002080,-13.311783,-35.498726,2.630249,,,,,,
1487811303.266095,0.241082,1.500824,0.493994,-0.027307,0.001424,-0.006157,0.016692,-0.997553,-0.067893,-0.004394,0.004679,-0.003579,-13.236938,-35.499275,2.330383,,,,,,
1487811303.286115,0.239555,1.500083,0.495300,-0.024001,-0.014472,-0.004869,0.016764,-0.997501,-0.068637,-0.000361,0.001499,-0.007352,-13.236938,-35.499275,2.330383,,,,,,
1487811303.306104,0.238603,1.499757,0.495845,0.005939,-0.021632,-0.013216,0.016776,-0.997478,-0.068969,-0.005576,0.005412,-0.002641,-13.312683,-35.649178,2.331024,,,,,,
1487811303.326123,0.243814,1.500367,0.490532,0.034530,0.009409,-0.017809,0.016988,-0.997521,-0.068289,-0.002553,-0.000755,0.006736,-13.238281,-35.798836,2.631866,,,,,,
1487811303.346112,0.251952,1.501145,0.482741,0.025913,0.017817,-0.008349,0.017350,-0.997575,-0.067398,0.005035,-0.005919,0.006881,-12.938309,-35.799385,2.557343,,,,,,
1487811303.366132,0.255015,1.501050,0.479860,-0.031610,0.002437,0.004482,0.017580,-0.997569,-0.067436,0.007933,-0.005102,0.001975,-12.936554,-35.424736,2.330444,,,,,,
1487811303.386121,0.249407,1.499912,0.485140,-0.055920,-0.029627,0.006967,0.017482,-0.997489,-0.068634,0.002050,0.000434,-0.005753,-12.936554,-35.424736,2.330444,,,,,,
1487811303.406140,0.243518,1.499146,0.490567,-0.013329,-0.019699,0.006959,0.017261,-0.997434,-0.069477,-0.001957,0.000288,-0.002621,-12.936356,-35.424171,2.705444,,,,,,
1487811303.426129,0.242707,1.499584,0.491018,0.037811,-0.005436,-0.008010,0.017100,-0.997465,-0.069066,-0.005900,0.004286,0.002614,-13.538422,-35.798836,2.331421,,,,,,
1487811303.446149,0.248874,1.500326,0.485294,0.027996,0.030589,-0.023445,0.017343,-0.997518,-0.068243,-0.000742,0.005025,-0.001292,-13.087250,-35.574394,2.405975,,,,,,
1487811303.466138,0.260679,1.500042,0.473688,0.000524,-0.002555,-0.031625,0.018221,-0.997498,-0.068307,0.010649,-0.004531,-0.008384,-13.312561,-35.648827,2.556030,,,,,,
1487811303.486157,0.273889,1.499813,0.460155,0.014491,-0.021557,-0.019618,0.019183,-0.997482,-0.068280,0.014783,-0.003632,-0.000674,-13.312561,-35.648827,2.556030,,,,,,
1487811303.506146,0.284714,1.500309,0.448913,0.029402,-0.019308,-0.016416,0.019782,-0.997517,-0.067594,0.007897,0.004246,0.005277,-13.463348,-35.798714,2.481537,,,,,,
1487811303.526166,0.291087,1.500486,0.442084,0.004879,-0.024842,-0.005753,0.020162,-0.997529,-0.067297,0.001368,-0.002135,0.002844,-13.087479,-35.648949,2.706360,,,,,,
1487811303.546155,0.293165,1.500875,0.439621,0.003610,-0.001511,0.007795,0.020190,-0.997556,-0.066884,0.006910,-0.005282,0.014409,-12.863068,-35.724846,2.332062,,,,,,
1487811303.566174,0.291442,1.501024,0.441837,-0.015840,0.033351,0.008343,0.020032,-0.997567,-0.066776,0.003055,0.006295,0.006626,-13.537628,-35.648720,2.405701,,,,,,
1487811303.586163,0.288550,1.500625,0.445196,-0.019969,0.011013,0.016089,0.019952,-0.997539,-0.067215,0.004050,0.000759,-0.004547,-13.537628,-35.648720,2.405701,,,,,,
1487811303.606183,0.280456,1.500045,0.452812,-0.026001,-0.042126,0.021041,0.019567,-0.997498,-0.067930,0.000803,0.002747,-0.003816,-13.087143,-35.574059,2.630951,,,,,,
1487811303.626172,0.272189,1.499873,0.460661,-0.029466,-0.001805,0.013036,0.019051,-0.997486,-0.068255,-0.005455,0.004246,0.009722,-13.313309,-35.798836,2.556763,,,,,,
1487811303.646191,0.269354,1.499599,0.464160,-0.012720,0.047186,0.001770,0.018930,-0.997467,-0.068573,-0.000025,0.002670,0.001587,-13.014511,-36.024498,2.408356,,,,,,
1487811303.666180,0.269331,1.499390,0.465196,0.003278,0.045199,0.005040,0.018984,-0.997452,-0.068774,0.001569,0.001312,-0.012388,-13.163681,-35.874046,2.557373,,,,,,
1487811303.686200,0.267645,1.498815,0.466891,-0.013282,-0.023947,0.000575,0.019020,-0.997410,-0.069358,0.000466,0.002217,-0.012047,-13.163681,-35.874046,2.557373,,,,,,
1487811303.706189,0.262429,1.498410,0.471248,-0.014189,-0.049440,0.008379,0.018763,-0.997381,-0.069847,-0.002542,0.002127,-0.000023,-13.162247,-35.574287,2.405884,,,,,,
1487811303.726209,0.260081,1.498828,0.473059,0.016479,-0.008822,0.000467,0.018491,-0.997411,-0.069488,-0.004606,0.003088,0.010940,-13.237305,-35.574287,2.330750,,,,,,
1487811303.746198,0.265494,1.500150,0.468149,0.041711,0.045545,-0.003378,0.018521,-0.997506,-0.068115,-0.002957,-0.000389,0.021621,-13.537445,-35.648155,2.780701,,,,,,
1487811303.766217,0.268517,1.500986,0.466340,0.003168,0.061119,0.010170,0.018506,-0.997564,-0.067254,0.002887,-0.001795,0.007165,-13.087982,-35.724281,2.481720,,,,,,
1487811303.786206,0.262725,1.500184,0.472784,-0.051915,0.005428,0.016082,0.018324,-0.997508,-0.068133,0.002367,0.001414,-0.009504,-13.087982,-35.724281,2.481720,,,,,,
1487811303.806226,0.254188,1.498788,0.480620,-0.053574,-0.051890,-0.005557,0.018092,-0.997409,-0.069635,-0.004511,0.009585,-0.006766,-13.162628,-35.649284,2.406250,,,,,,
1487811303.826215,0.253993,1.498115,0.480247,-0.018689,-0.005930,-0.012465,0.018247,-0.997360,-0.070288,-0.002561,-0.001526,0.003363,-13.312683,-35.649178,2.331024,,,,,,
1487811303.846234,0.254218,1.498184,0.480350,0.007707,0.028267,-0.005370,0.018245,-0.997365,-0.070216,-0.004360,-0.001506,-0.000569,-13.462296,-35.573952,2.330414,,,,,,
1487811303.866223,0.252674,1.497812,0.482627,-0.025483,0.037514,0.011476,0.018230,-0.997338,-0.070604,0.003011,-0.002067,-0.008497,-13.086288,-35.349846,2.104858,,,,,,
1487811303.886243,0.245459,1.496872,0.489798,-0.022844,-0.034654,0.014574,0.017947,-0.997269,-0.071643,0.001737,0.000382,-0.014173,-13.086288,-35.349846,2.104858,,,,,,
1487811303.906232,0.238684,1.496820,0.495700,0.000618,-0.032320,0.010349,0.017474,-0.997265,-0.071814,-0.005328,0.001492,0.008459,-13.087677,-35.649513,2.331360,,,,,,
1487811303.926251,0.237901,1.497487,0.496696,0.016163,0.035769,-0.000104,0.017261,-0.997314,-0.071181,-0.005557,0.001098,0.011550,-13.312225,-35.573952,2.480621,,,,,,
1487811303.946240,0.239710,1.497993,0.495978,0.017103,0.051697,0.003955,0.017270,-0.997351,-0.070659,0.002597,-0.001703,-0.003788,-13.311859,-35.498940,2.480255,,,,,,
1487811303.966260,0.238011,1.497671,0.498039,-0.009156,-0.010117,0.015360,0.017226,-0.997328,-0.071001,0.003252,-0.001162,-0.011702,-13.011658,-35.424965,2.105347,,,,,,
1487811303.986249,0.234964,1.497413,0.500214,-0.013143,-0.047306,0.012636,0.017069,-0.997309,-0.071303,0.004385,-0.000708,0.005645,-13.011658,-35.424965,2.105347,,,,,,
1487811304.006268,0.231908,1.497654,0.503082,0.000302,0.009070,0.018323,0.016796,-0.997326,-0.071121,0.000950,0.000882,0.004821,-13.237305,-35.574287,2.330750,,,,,,
1487811304.026257,0.226372,1.497366,0.508756,-0.012363,-0.006956,0.009969,0.016466,-0.997305,-0.071493,-0.001604,0.002920,-0.011073,-13.086136,-35.349403,2.404877,,,,,,
1487811304.046277,0.219991,1.497135,0.514495,-0.007875,-0.037702,0.010395,0.016060,-0.997288,-0.071821,-0.004311,0.002507,-0.001177,-13.312454,-35.574623,2.030640,,,,,,
1487811304.066266,0.215826,1.497509,0.518358,0.010023,0.001751,-0.004998,0.015681,-0.997316,-0.071523,-0.009699,0.010530,0.007481,-13.235397,-35.199165,2.403900,,,,,,
1487811304.086260,0.220284,1.497754,0.514122,0.012100,0.014520,-0.016892,0.015946,-0.997334,-0.071214,-0.003464,0.003697,0.003510,-13.235397,-35.199165,2.403900,,,,,,
,,,,,,,,,,,,,,,,37.782393,-122.391584,12.172607,0.000000,181.054688,1487811304.002079
1487811304.106249,0.223171,1.497908,0.511438,0.000410,0.008047,-0.014701,0.016118,-0.997345,-0.071018,-0.002522,0.007858,0.003681,-13.461624,-35.424171,2.179657,,,,,,
1487811304.126269,0.227434,1.497907,0.507483,0.000268,0.027153,-0.012821,0.016420,-0.997345,-0.070950,-0.002138,0.003174,0.007656,-13.461426,-35.423607,2.554657,,,,,,
1487811304.146258,0.231713,1.498151,0.504153,-0.006312,0.045121,0.006112,0.016668,-0.997362,-0.070642,0.010294,-0.002699,0.005456,-13.536057,-35.348503,2.554169,,,,,,
1487811304.166278,0.232000,1.497325,0.503853,-0.033482,-0.030485,-0.000438,0.016878,-0.997302,-0.071439,0.005751,0.005176,-0.012988,-12.860809,-35.274849,2.329834,,,,,,
1487811304.186267,0.230060,1.496071,0.505027,-0.045168,-0.033762,-0.011096,0.017024,-0.997209,-0.072689,0.000356,0.001024,-0.006596,-12.860809,-35.274849,2.329834,,,,,,
1487811304.206286,0.230299,1.495326,0.504347,-0.009058,-0.012212,-0.013409,0.017211,-0.997153,-0.073408,-0.003799,0.000816,-0.007097,-13.236511,-35.424171,2.405029,,,,,,
1487811304.226275,0.231185,1.495590,0.503637,0.029078,0.019962,-0.004123,0.017216,-0.997173,-0.073136,-0.003971,-0.004429,-0.002608,-13.610367,-35.198494,2.478302,,,,,,
1487811304.246295,0.233080,1.496460,0.502147,0.049377,0.010573,0.007793,0.017154,-0.997238,-0.072260,0.000973,-0.001068,-0.002402,-13.085358,-35.199287,2.479095,,,,,,
1487811304.266284,0.236355,1.496744,0.498610,0.004900,-0.023762,-0.017479,0.017324,-0.997259,-0.071928,0.001124,0.006811,-0.003466,-12.635727,-35.274956,2.480164,,,,,,
1487811304.286303,0.240860,1.496256,0.493338,-0.025906,-0.043145,-0.013048,0.017764,-0.997223,-0.072322,0.007199,-0.002151,0.001292,-12.635727,-35.274956,2.480164,,,,,,
1487811304.306292,0.240753,1.495822,0.492854,-0.019720,-0.024008,0.012306,0.017860,-0.997191,-0.072743,0.005853,-0.009355,0.001332,-13.161102,-35.349174,2.479736,,,,,,
1487811304.326312,0.236190,1.495602,0.497121,-0.013375,-0.013329,0.004719,0.017579,-0.997174,-0.073038,-0.004273,0.000791,-0.000311,-13.312225,-35.573952,2.480621,,,,,,
1487811304.346301,0.235170,1.495457,0.498068,0.002539,0.004874,-0.011470,0.017538,-0.997163,-0.073197,-0.004980,0.004579,0.000580,-13.385010,-35.123955,2.403290,,,,,,
1487811304.366320,0.240821,1.495821,0.492737,0.036579,0.016847,-0.009402,0.017865,-0.997191,-0.072744,0.003864,0.000456,-0.001765,-13.236481,-35.424065,2.480011,,,,,,
1487811304.386309,0.247499,1.496304,0.485942,0.031486,-0.020364,-0.000399,0.018232,-0.997227,-0.072155,0.008150,0.001301,-0.005085,-13.236481,-35.424065,2.480011,,,,,,
1487811304.406329,0.245597,1.496331,0.487200,-0.030316,-0.033655,0.011330,0.018088,-0.997229,-0.072164,0.000497,-0.001291,0.007726,-13.536057,-35.348503,2.554169,,,,,,
1487811304.426318,0.238600,1.495878,0.494198,-0.049900,0.020316,0.011631,0.017690,-0.997195,-0.072728,-0.005406,0.003436,0.014042,-13.086029,-35.349068,2.629852,,,,,,
1487811304.446337,0.234612,1.495616,0.498727,-0.002999,0.028166,0.004200,0.017460,-0.997175,-0.073052,-0.002598,0.003431,-0.002250,-13.460434,-35.198952,2.328552,,,,,,
1487811304.466326,0.232648,1.495837,0.501117,0.022713,0.012469,0.003420,0.017266,-0.997192,-0.072872,-0.004311,-0.001175,-0.005299,-13.311142,-35.349068,2.404541,,,,,,
1487811304.486346,0.231156,1.496048,0.502791,-0.002902,0.013304,0.006538,0.017109,-0.997208,-0.072692,-0.002354,0.001343,0.002532,-13.311142,-35.349068,2.404541,,,,,,
1487811304.506335,0.228659,1.495440,0.505337,-0.032610,-0.006057,-0.000756,0.017065,-0.997162,-0.073325,0.000361,0.002732,-0.008569,-13.537216,-35.573616,2.480286,,,,,,
1487811304.526354,0.226076,1.494625,0.507648,-0.020823,-0.017639,0.006896,0.017058,-0.997100,-0.074161,0.003343,-0.002533,-0.008694,-12.786957,-35.500069,2.256042,,,,,,
1487811304.546343,0.224181,1.494355,0.509042,0.017661,-0.028978,0.003954,0.016977,-0.997080,-0.074456,-0.000147,0.000864,-0.009345,-13.237411,-35.574623,2.105743,,,,,,
1487811304.566363,0.223197,1.495315,0.509754,0.039860,0.002010,-0.002785,0.016692,-0.997153,-0.073540,-0.009825,0.002234,0.010200,-13.236267,-35.349510,2.179626,,,,,,
1487811304.586352,0.225504,1.496644,0.507904,0.033313,0.026377,-0.008450,0.016565,-0.997252,-0.072209,-0.008692,0.003752,0.014713,-13.236267,-35.349510,2.179626,,,,,,
1487811304.606372,0.225980,1.497204,0.507626,-0.003870,0.004816,-0.002929,0.016474,-0.997293,-0.071657,-0.004161,-0.002402,0.010042,-13.461548,-35.423958,2.329651,,,,,,
1487811304.626361,0.224729,1.496945,0.508777,-0.036858,-0.008220,0.004613,0.016442,-0.997274,-0.071928,0.001868,-0.003855,0.004164,-13.461395,-35.423500,2.629639,,,,,,
1487811304.646380,0.222597,1.496262,0.510910,-0.027310,0.002488,-0.004034,0.016439,-0.997224,-0.072628,-0.001104,0.002579,-0.002568,-13.536179,-35.348839,2.329163,,,,,,
1487811304.666369,0.225324,1.495773,0.508214,0.000434,0.002737,-0.010360,0.016746,-0.997187,-0.073059,0.002617,0.003535,-0.006012,-13.761063,-35.348167,2.553833,,,,,,
1487811304.686389,0.227369,1.495694,0.506238,0.012136,-0.000362,0.005708,0.016913,-0.997181,-0.073100,0.004586,-0.003765,-0.007787,-13.761063,-35.348167,2.553833,,,,,,
1487811304.706378,0.224314,1.495634,0.508982,0.004796,-0.020601,0.010222,0.016703,-0.997177,-0.073211,-0.001505,0.000869,-0.005952,-13.087006,-35.499733,2.180603,,,,,,
1487811304.726397,0.221992,1.495817,0.511023,0.004730,-0.006789,-0.000623,0.016493,-0.997190,-0.073071,-0.002806,0.003477,0.004086,-13.311966,-35.499275,2.255249,,,,,,
1487811304.746386,0.224437,1.496242,0.508743,0.015252,0.015600,-0.005156,0.016577,-0.997222,-0.072617,0.000009,0.001693,0.007813,-13.312408,-35.574501,2.105621,,,,,,
1487811304.766406,0.229001,1.496443,0.504286,0.003637,0.002766,-0.012488,0.016863,-0.997237,-0.072346,0.002149,0.003844,0.004719,-13.386063,-35.348717,2.554413,,,,,,
1487811304.786395,0.233721,1.496511,0.499616,-0.013428,0.002613,-0.010407,0.017189,-0.997242,-0.072200,0.005135,0.001774,0.006541,-13.386063,-35.348717,2.554413,,,,,,
1487811304.806414,0.237426,1.496047,0.495928,-0.026213,0.002505,-0.014713,0.017565,-0.997208,-0.072585,0.002226,0.005127,0.001876,-12.861511,-35.424736,2.405579,,,,,,
1487811304.826403,0.240760,1.495634,0.492819,-0.002898,0.019685,-0.006345,0.017905,-0.997177,-0.072926,0.003442,0.000671,-0.000270,-12.786957,-35.500069,2.256042,,,,,,
1487811304.846423,0.245616,1.495701,0.488490,0.014094,0.026193,0.002140,0.018242,-0.997182,-0.072773,0.008872,-0.001537,-0.002331,-13.012787,-35.649956,2.106445,,,,,,
1487811304.866412,0.247333,1.495728,0.486895,-0.005955,-0.003709,0.002472,0.018361,-0.997184,-0.072716,0.004069,0.007758,0.002998,-13.086060,-35.349174,2.554871,,,,,,
1487811304.886431,0.247731,1.495271,0.486356,-0.034733,0.000302,-0.013662,0.018502,-0.997149,-0.073150,-0.000893,0.004153,0.007674,-13.086060,-35.349174,2.554871,,,,,,
1487811304.906420,0.249050,1.494670,0.485135,-0.016630,0.003644,-0.011518,0.018746,-0.997104,-0.073706,-0.001091,0.009769,-0.001322,-13.087296,-35.574501,2.330963,,,,,,
1487811304.926440,0.251178,1.494462,0.482938,-0.000609,-0.000464,-0.009283,0.018954,-0.997088,-0.073867,-0.001956,-0.004392,0.001052,-12.862839,-35.650291,2.031708,,,,,,
1487811304.946429,0.251157,1.494266,0.482868,-0.028327,-0.007088,0.002456,0.019001,-0.997073,-0.074057,-0.001957,0.000323,0.003531,-13.163376,-35.799278,2.407013,,,,,,
1487811304.966448,0.247416,1.493133,0.486611,-0.069984,0.007427,-0.013849,0.019001,-0.996986,-0.075223,-0.006321,0.002891,-0.000781,-13.012039,-35.499962,2.105713,,,,,,
1487811304.986437,0.248533,1.491963,0.485505,-0.023972,-0.012339,-0.015590,0.019372,-0.996894,-0.076332,0.001945,0.004920,-0.009102,-13.012039,-35.499962,2.105713,,,,,,
1487811305.006457,0.254958,1.491882,0.478680,0.015594,-0.019409,-0.031382,0.019882,-0.996888,-0.076284,-0.007171,0.004182,-0.003473,-13.162903,-35.723946,2.631592,,,,,,
1487811305.026446,0.263483,1.492295,0.470121,0.010036,0.009199,-0.024311,0.020424,-0.996920,-0.075715,0.005088,-0.004087,0.005799,-13.088425,-35.799507,2.332092,,,,,,
1487811305.046466,0.268788,1.492067,0.464986,-0.015565,-0.000606,0.000268,0.020886,-0.996902,-0.075824,0.007388,-0.003845,-0.002774,-13.313095,-35.724281,2.256378,,,,,,
1487811305.066455,0.264345,1.491439,0.469080,-0.033557,-0.020934,0.001556,0.020713,-0.996853,-0.076521,-0.003226,0.000713,-0.001436,-12.863068,-35.724846,2.332062,,,,,,
1487811305.086420,0.259376,1.490855,0.473677,-0.014338,-0.019692,-0.009062,0.020481,-0.996806,-0.077185,-0.006901,0.005245,-0.003916,-12.863068,-35.724846,2.332062,,,,,,
1487811305.106439,0.261516,1.491166,0.471213,0.032495,-0.004416,-0.012326,0.020566,-0.996831,-0.076842,-0.001523,0.003026,0.006438,-12.638428,-35.800179,2.332794,,,,,,
,,,,,,,,,,,,,,,,37.782393,-122.391584,12.170654,0.000000,181.054688,1487811305.002078
1487811305.126428,0.269291,1.492029,0.463840,0.027998,0.032711,-0.023498,0.020934,-0.996899,-0.075850,-0.000030,0.011472,0.006102,-13.013885,-35.874840,2.182587,,,,,,
1487811305.146448,0.279125,1.492188,0.454575,0.003551,0.020818,-0.022348,0.021635,-0.996912,-0.075488,0.007204,0.000864,0.001315,-13.238464,-35.799385,2.256866,,,,,,
1487811305.166437,0.286157,1.492165,0.447747,-0.015625,0.004690,0.010857,0.022172,-0.996910,-0.075356,0.013350,-0.006462,0.007714,-12.640411,-36.175514,2.109650,,,,,,
1487811305.186456,0.282412,1.491677,0.451690,-0.051923,0.010744,0.008537,0.022026,-0.996872,-0.075906,-0.001808,0.005325,0.004236,-12.640411,-36.175514,2.109650,,,,,,
1487811305.206445,0.279191,1.490417,0.455079,-0.053966,0.007564,-0.014890,0.022127,-0.996771,-0.077184,-0.000490,0.007391,-0.005366,-13.238815,-35.874275,2.332245,,,,,,
1487811305.226465,0.283941,1.489692,0.450424,0.007851,0.011281,-0.009440,0.022696,-0.996713,-0.077772,0.008371,-0.003348,-0.005892,-13.088608,-35.800072,1.957092,,,,,,
1487811305.246454,0.290225,1.490192,0.444741,0.043902,0.037064,-0.001154,0.023041,-0.996753,-0.077150,0.005386,-0.000332,-0.003615,-12.863846,-35.874947,2.257812,,,,,,
1487811305.266473,0.293412,1.490289,0.442058,-0.000726,0.011190,0.002253,0.023259,-0.996761,-0.076983,0.003795,-0.000599,-0.007856,-12.938385,-35.799614,2.407349,,,,,,
1487811305.286462,0.288900,1.489436,0.446342,-0.060236,-0.021181,0.005712,0.023154,-0.996692,-0.077902,-0.001639,-0.002545,-0.003778,-12.938385,-35.799614,2.407349,,,,,,
1487811305.306482,0.279594,1.488014,0.455118,-0.065549,-0.022283,0.000386,0.022819,-0.996575,-0.079477,-0.008995,-0.000510,-0.002417,-13.015381,-36.174843,2.184082,,,,,,
1487811305.326471,0.274746,1.487590,0.460091,0.000206,0.029249,0.000965,0.022548,-0.996540,-0.079994,-0.006099,-0.004589,-0.000359,-13.313538,-35.799507,2.106750,,,,,,
1487811305.346490,0.278876,1.488017,0.456812,0.044972,0.040273,-0.016118,0.022761,-0.996576,-0.079490,0.001394,0.001459,-0.007836,-13.239136,-35.949165,2.407623,,,,,,
1487811305.366479,0.285065,1.488453,0.450859,0.040002,-0.010728,-0.015455,0.023130,-0.996612,-0.078931,0.000444,-0.004487,-0.007953,-12.865036,-36.100182,2.108917,,,,,,
1487811305.386499,0.289295,1.488710,0.445704,0.008323,-0.054530,-0.016032,0.023391,-0.996633,-0.078587,-0.000533,0.000707,0.003590,-12.865036,-36.100182,2.108917,,,,,,
1487811305.406488,0.294955,1.489630,0.439627,0.008852,0.017654,-0.005256,0.023569,-0.996708,-0.077576,0.002692,-0.009976,0.030548,-13.165482,-36.174950,1.958862,,,,,,
1487811305.426507,0.300452,1.491126,0.436019,0.026141,0.124998,0.024295,0.023554,-0.996828,-0.076021,0.006491,-0.010420,0.027437,-13.314285,-35.949501,2.107513,,,,,,
1487811305.446496,0.299162,1.491559,0.439717,-0.002372,0.087595,0.020439,0.023328,-0.996862,-0.075639,0.001406,0.001074,-0.007079,-13.314209,-35.949272,2.257507,,,,,,
1487811305.466516,0.292989,1.490404,0.445817,-0.058947,-0.048771,0.007153,0.023194,-0.996770,-0.076884,0.003006,0.000936,-0.010976,-13.090027,-36.099831,2.108582,,,,,,
1487811305.486505,0.282828,1.489344,0.454732,-0.048222,-0.061426,0.018021,0.022706,-0.996685,-0.078130,-0.003526,-0.000935,0.001729,-13.090027,-36.099831,2.108582,,,,,,
1487811305.506525,0.273931,1.489664,0.463668,0.001135,0.047295,0.015669,0.021924,-0.996711,-0.078021,-0.014981,0.002951,0.015247,-13.538528,-35.799171,2.106415,,,,,,
1487811305.526514,0.270398,1.489923,0.468977,0.001879,0.098279,-0.000989,0.021579,-0.996732,-0.077850,-0.008182,0.008710,-0.006058,-13.240707,-36.249382,2.259094,,,,,,
1487811305.546533,0.271108,1.489198,0.469329,-0.024196,0.020566,-0.011763,0.021828,-0.996673,-0.078531,0.002830,0.003188,-0.007773,-12.940414,-36.175056,2.109192,,,,,,
1487811305.566522,0.262673,1.488015,0.477868,-0.045310,-0.018914,0.006838,0.021471,-0.996576,-0.079851,0.001173,0.016916,-0.018111,-12.565491,-36.175850,1.959778,,,,,,
1487811305.586542,0.259051,1.487350,0.479573,0.019627,-0.127636,-0.044847,0.021351,-0.996520,-0.080568,-0.015415,0.022903,-0.010099,-12.565491,-36.175850,1.959778,,,,,,
1487811305.606531,0.285172,1.487474,0.449766,0.105018,-0.224413,-0.188367,0.023413,-0.996531,-0.079865,-0.010535,0.060526,-0.048416,-13.390106,-36.099617,1.958160,,,,,,
1487811305.626550,0.355340,1.489687,0.373626,0.259555,-0.302564,-0.309545,0.028188,-0.996712,-0.075959,-0.031835,0.033578,-0.026259,-13.316132,-36.324379,2.184387,,,,,,
1487811305.646539,0.462943,1.493180,0.261041,0.378382,-0.199574,-0.347897,0.034627,-0.996989,-0.069377,-0.009756,0.009715,-0.028355,-12.640182,-36.174843,2.559662,,,,,,
1487811305.666559,0.579519,1.496001,0.138493,0.308894,-0.327580,-0.339997,0.040921,-0.997204,-0.062525,0.013553,-0.006275,-0.038290,-12.640152,-36.174721,2.634644,,,,,,
1487811305.686548,0.666793,1.495317,0.042247,0.146563,-0.477690,-0.268078,0.046637,-0.997153,-0.059256,0.004236,-0.005350,-0.001322,-12.640152,-36.174721,2.634644,,,,,,
1487811305.706567,0.697328,1.492777,0.001041,-0.105356,-0.641356,-0.163167,0.050051,-0.996958,-0.059746,-0.020739,0.001841,-0.019111,-12.489853,-36.174049,3.234863,,,,,,
1487811305.726556,0.697156,1.489287,-0.010896,-0.161759,-0.540007,-0.093220,0.052274,-0.996680,-0.062422,0.003512,-0.037530,0.059950,-11.663315,-35.875175,3.309631,,,,,,
1487811305.746576,0.651214,1.484886,0.026011,-0.346290,-0.434494,0.004044,0.052011,-0.996312,-0.068245,0.011725,0.018941,0.008522,-11.363998,-36.025398,3.460815,,,,,,
1487811305.766565,0.593508,1.476303,0.074970,-0.535618,-0.464707,-0.103828,0.052769,-0.995539,-0.078217,-0.005116,0.015589,-0.011840,-11.590866,-36.400063,3.462372,,,,,,
1487811305.786584,0.529910,1.465313,0.128476,-0.642150,-0.516674,-0.022382,0.053218,-0.994442,-0.090848,0.017796,-0.002384,0.003903,-11.590866,-36.400063,3.462372,,,,,,
1487811305.806573,0.462496,1.453149,0.186645,-0.735335,-0.466539,-0.015850,0.052371,-0.993088,-0.105045,-0.020496,0.014740,0.011097,-11.741089,-36.400505,3.012115,,,,,,
1487811305.826593,0.402979,1.437108,0.236993,-0.955765,-0.497081,-0.065139,0.052271,-0.991077,-0.122613,-0.029627,0.040607,0.001276,-11.516693,-36.476509,2.562866,,,,,,
1487811305.846582,0.349591,1.416508,0.281976,-1.145280,-0.390434,-0.087362,0.052636,-0.988121,-0.144381,0.008399,0.021309,0.014895,-11.740784,-36.251854,2.111389,,,,,,
1487811305.866601,0.311367,1.392208,0.315137,-1.304300,-0.199597,-0.168212,0.054422,-0.984095,-0.169099,0.010809,0.043940,0.028535,-11.965561,-36.176979,1.810669,,,,,,
1487811305.886590,0.287618,1.364727,0.339424,-1.421109,0.175206,-0.190588,0.058043,-0.978843,-0.196209,-0.009855,0.038718,0.105831,-11.965561,-36.176979,1.810669,,,,,,
1487811305.906610,0.282793,1.335444,0.354807,-1.503506,0.688389,-0.287230,0.065068,-0.972432,-0.223924,-0.038838,0.031224,0.126527,-12.115723,-36.177193,1.510437,,,,,,
1487811305.926599,0.294454,1.302229,0.362767,-1.713322,1.146375,-0.443233,0.077009,-0.964152,-0.253930,-0.030821,0.051142,0.153634,-11.293472,-36.482140,-0.961761,,,,,,
1487811305.946619,0.317749,1.265202,0.364864,-1.763811,1.246908,-0.569503,0.093997,-0.953668,-0.285799,-0.017673,0.027277,0.030733,-11.067261,-36.109398,-2.238342,,,,,,
1487811305.966608,0.339432,1.230077,0.364484,-1.622721,0.913736,-0.564676,0.111261,-0.942515,-0.315099,-0.033655,0.007883,0.076955,-10.844772,-36.486641,-3.511108,,,,,,
1487811305.986627,0.352399,1.195180,0.367276,-1.711281,0.764322,-0.546947,0.126617,-0.930282,-0.344303,-0.008880,0.015746,0.074222,-10.844772,-36.486641,-3.511108,,,,,,
1487811306.006616,0.362932,1.156464,0.370607,-1.927314,0.607578,-0.687341,0.142922,-0.915385,-0.376355,-0.009103,0.048656,0.032666,-10.094406,-36.265007,-5.011078,,,,,,
1487811306.026636,0.373965,1.112244,0.368771,-2.142874,0.425453,-0.923390,0.161704,-0.896694,-0.412058,-0.031928,0.064434,0.064371,-9.120010,-36.120415,-7.635345,,,,,,
1487811306.046625,0.386821,1.060495,0.364715,-2.528854,0.491289,-1.135488,0.184262,-0.872597,-0.452351,-0.050107,0.070549,0.119160,-8.143951,-35.749229,-9.210693,,,,,,
1487811306.066644,0.398312,1.000623,0.359807,-2.800648,0.256627,-1.343269,0.209360,-0.841808,-0.497522,-0.039957,0.063701,0.091135,-7.244034,-35.603050,-10.860138,,,,,,
,,,,,,,,,,,,,,,,37.782393,-122.391584,12.148743,0.000000,181.054688,1487811306.002078
1487811306.086641,0.404961,0.939012,0.353051,-2.722800,-0.018674,-1.376722,0.232681,-0.806975,-0.542818,-0.007507,-0.000169,0.055971,-7.244034,-35.603050,-10.860138,,,,,,
1487811306.106661,0.407989,0.881400,0.348311,-2.511895,-0.047781,-1.207211,0.252371,-0.771630,-0.583863,-0.017111,-0.031348,0.039246,-6.716507,-34.931328,-12.512695,,,,,,
1487811306.126650,0.408675,0.829334,0.344572,-2.262800,-0.145442,-1.156138,0.268386,-0.737482,-0.619749,-0.032211,-0.010458,0.065458,-4.763702,-33.965340,-16.564575,,,,,,
1487811306.146668,0.412249,0.777998,0.336564,-2.277668,-0.052974,-1.402724,0.285406,-0.701855,-0.652643,-0.084234,0.064556,0.107310,-4.013184,-33.743263,-17.764557,,,,,,
1487811306.166657,0.429039,0.720130,0.320421,-2.533427,0.569522,-1.934350,0.312713,-0.659483,-0.683588,-0.113250,0.143125,0.222880,-2.959000,-32.771873,-19.117859,,,,,,
1487811306.186677,0.457406,0.651913,0.300573,-2.856359,0.805859,-2.244523,0.351057,-0.606708,-0.713207,-0.050367,-0.013287,0.097805,-2.959000,-32.771873,-19.117859,,,,,,
1487811306.206666,0.482707,0.581710,0.282477,-2.734091,0.713505,-2.241881,0.387832,-0.549453,-0.740059,0.003373,-0.062333,0.071495,-1.682388,-32.251717,-21.068542,,,,,,
1487811306.226686,0.502611,0.515486,0.267390,-2.578596,0.527853,-2.065117,0.419118,-0.492958,-0.762452,-0.017980,-0.027672,0.082353,0.198624,-30.906683,-22.497437,,,,,,
1487811306.246675,0.514551,0.453764,0.258323,-2.461995,0.339571,-1.717774,0.442340,-0.438352,-0.782421,-0.001331,-0.023578,0.053432,2.909531,-28.440039,-25.355682,,,,,,
1487811306.266695,0.523504,0.397021,0.256357,-2.435085,0.454117,-1.367243,0.461033,-0.386673,-0.798707,-0.010746,-0.040345,0.116563,4.491409,-26.944204,-26.560791,,,,,,
1487811306.286684,0.532804,0.343311,0.260720,-2.401774,0.590002,-1.069239,0.478310,-0.336607,-0.811120,0.022026,-0.006060,0.063256,4.491409,-26.944204,-26.560791,,,,,,
1487811306.306703,0.544530,0.296593,0.267848,-2.030890,0.819112,-0.810971,0.495398,-0.292264,-0.818023,0.006890,-0.007327,0.000259,4.874832,-25.146490,-27.694214,,,,,,
1487811306.326692,0.562747,0.257869,0.276429,-1.864327,1.153716,-0.614417,0.515871,-0.255021,-0.817827,-0.016207,0.018983,0.114870,6.005554,-23.875097,-28.973877,,,,,,
1487811306.346712,0.581593,0.215045,0.289803,-2.354619,0.963670,-0.632497,0.536703,-0.213392,-0.816342,0.064646,-0.005175,-0.004260,8.117859,-21.255651,-30.558838,,,,,,
1487811306.366701,0.592579,0.165059,0.306936,-2.625740,0.579193,-0.699630,0.550911,-0.164311,-0.818229,0.101829,-0.028210,-0.055657,9.176483,-19.458258,-31.241180,,,,,,
1487811306.386721,0.600304,0.117621,0.324874,-2.306717,0.488375,-0.507658,0.560991,-0.117350,-0.819462,0.077544,-0.008642,-0.119960,9.176483,-19.458258,-31.241180,,,,,,
1487811306.406709,0.607424,0.083532,0.342357,-1.680318,0.421243,-0.076204,0.568764,-0.083435,-0.818258,0.079261,0.008896,-0.155757,9.709045,-17.884970,-31.848267,,,,,,
1487811306.426728,0.612061,0.059751,0.362218,-1.527912,0.180266,0.198345,0.573530,-0.059716,-0.817005,0.151857,-0.005378,-0.111401,10.242569,-16.087240,-32.831451,,,,,,
1487811306.446718,0.605128,0.036338,0.382794,-1.578132,-0.656644,0.134651,0.568492,-0.036330,-0.821887,0.273672,-0.003328,-0.177320,10.778625,-13.838629,-33.216919,,,,,,
1487811306.466738,0.585848,0.013278,0.402736,-1.406335,-0.877171,0.295926,0.552857,-0.013277,-0.833170,0.242950,-0.046293,-0.140707,10.184875,-12.489202,-34.199554,,,,,,
1487811306.486727,0.575795,0.003748,0.425955,-0.836546,-0.300640,0.960789,0.544498,-0.003748,-0.838754,0.170010,-0.071066,-0.064475,10.184875,-12.489202,-34.199554,,,,,,
1487811306.506746,0.566851,0.008647,0.452937,-0.281596,-0.673099,1.419556,0.536959,-0.008647,-0.843564,0.291685,-0.054326,-0.312121,9.512909,-11.814215,-34.878937,,,,,,
1487811306.526735,0.544381,0.032051,0.477269,0.775352,-1.255549,1.814287,0.517623,-0.032046,-0.855009,0.329255,-0.041501,-0.367052,8.614349,-11.512991,-34.956787,,,,,,
1487811306.546755,0.520322,0.078782,0.498006,1.916178,-1.058064,2.214903,0.495618,-0.078701,-0.864968,0.284320,0.041714,-0.279334,8.012100,-11.962194,-35.030426,,,,,,
1487811306.566744,0.495226,0.143608,0.514476,2.652759,-1.334130,2.340134,0.470339,-0.143115,-0.870804,0.215116,0.078265,-0.325409,5.520874,-15.257650,-34.492706,,,,,,
1487811306.586762,0.463298,0.217498,0.533807,2.997583,-1.370733,2.688249,0.436372,-0.215787,-0.873508,0.255202,-0.010028,-0.194119,5.520874,-15.257650,-34.492706,,,,,,
1487811306.606751,0.433760,0.302350,0.559237,3.494849,-1.009091,3.162705,0.401221,-0.297764,-0.866232,0.192025,-0.012218,-0.198648,4.084183,-17.654577,-33.882843,,,,,,
1487811306.626771,0.407550,0.400580,0.595006,4.020788,-0.525213,3.736945,0.364984,-0.389952,-0.845414,0.249076,0.044539,-0.226745,1.823563,-19.899374,-32.675049,,,,,,
1487811306.646760,0.382934,0.508421,0.633777,4.473219,-0.327874,3.557500,0.326383,-0.486799,-0.810247,0.261920,0.180570,-0.227427,-0.288101,-22.369177,-31.315826,,,,,,
1487811306.666780,0.360358,0.613919,0.663574,4.368386,-0.438519,2.861118,0.288222,-0.576075,-0.764896,0.263978,0.299784,-0.201733,-3.386536,-27.458532,-27.320038,,,,,,
1487811306.686769,0.321407,0.703692,0.693921,3.436218,-1.342339,2.541939,0.240862,-0.647037,-0.723414,0.294920,0.117649,-0.273671,-3.386536,-27.458532,-27.320038,,,,,,
1487811306.706789,0.266358,0.767455,0.735862,2.159012,-1.232351,2.406698,0.189434,-0.694306,-0.694301,0.244724,0.152482,-0.198048,-5.869446,-29.325521,-24.464417,,,,,,
1487811306.726778,0.205535,0.816201,0.794842,1.913429,-0.752862,2.742005,0.139801,-0.728549,-0.670576,0.235519,0.076342,-0.134477,-7.897156,-29.995565,-23.189117,,,,,,
1487811306.746797,0.140330,0.872899,0.872350,2.703307,-0.138108,3.195806,0.089881,-0.766195,-0.636292,0.228005,0.099691,-0.119553,-9.623291,-30.365835,-21.764893,,,,,,
1487811306.766786,0.067509,0.946313,0.967908,3.733212,0.300680,3.359317,0.039441,-0.811265,-0.583346,0.197543,0.267473,-0.173032,-13.075287,-31.105490,-18.316345,,,,,,
1487811306.786806,-0.020342,1.032590,1.082579,4.568722,0.363434,3.104894,-0.010427,-0.858630,-0.512490,0.088277,0.434588,-0.377234,-13.075287,-31.105490,-18.316345,,,,,,
1487811306.806795,-0.132264,1.133690,1.213479,5.752507,-0.042729,2.392659,-0.055827,-0.905980,-0.419623,-0.121602,0.593541,-0.339853,-15.327148,-31.698858,-16.141785,,,,,,
1487811306.826815,-0.303087,1.249041,1.391736,6.558030,-0.110470,1.785774,-0.094385,-0.948682,-0.301818,-0.223318,0.625165,-0.151154,-16.677032,-31.992102,-12.992310,,,,,,
1487811306.846804,-0.575840,1.348141,1.687967,5.772169,1.040191,1.376810,-0.120245,-0.975314,-0.185210,-0.162241,0.533313,-0.084032,-17.954819,-32.885124,-9.614746,,,,,,
1487811306.866822,-1.018785,1.407095,2.159423,4.943829,0.897570,0.859035,-0.138765,-0.986631,-0.085462,-0.269819,0.514020,-0.117602,-18.327286,-32.729286,-6.091095,,,,,,
1487811306.886811,-1.563750,1.423584,2.726253,4.023523,0.688439,0.225622,-0.146677,-0.989184,-0.001034,-0.304846,0.500353,-0.084385,-18.327286,-32.729286,-6.091095,,,,,,
1487811306.906832,-2.002093,1.410267,-3.108477,3.239310,-0.105647,-0.256713,-0.145203,-0.987143,0.066821,-0.209747,0.438025,-0.209583,-19.300110,-32.795280,-1.067230,,,,,,
1487811306.926821,-2.326696,1.382799,-2.789327,2.980743,-0.680941,-0.487665,-0.135993,-0.982380,0.128197,-0.153848,0.358967,-0.151635,-19.524185,-32.792259,0.732391,,,,,,
1487811306.946840,-2.563516,1.345030,-2.562764,2.952916,-0.617369,-0.611247,-0.122317,-0.974623,0.187481,-0.172834,0.308104,0.027302,-19.222519,-32.640007,2.532104,,,,,,
1487811306.966829,-2.726042,1.299395,-2.399002,2.939163,0.011116,-0.759353,-0.108223,-0.963396,0.245266,-0.183266,0.281130,0.119053,-18.245712,-32.488319,4.632843,,,,,,
1487811306.986849,-2.837774,1.254333,-2.279103,2.567260,0.150221,-0.864657,-0.093103,-0.950342,0.296955,-0.124655,0.260919,0.060818,-18.245712,-32.488319,4.632843,,,,,,
1487811307.006838,-2.925016,1.217667,-2.195789,1.794789,-0.866158,-0.808579,-0.074316,-0.938295,0.337756,-0.032648,0.127169,-0.009112,-17.567551,-32.184380,7.932312,,,,,,
1487811307.026857,-3.001564,1.197228,-2.146556,0.789259,-1.886878,-0.567523,-0.050935,-0.931031,0.361367,0.046922,0.002427,0.116568,-17.116150,-32.033150,9.207245,,,,,,
1487811307.046845,-3.063315,1.194440,-2.125347,-0.168884,-2.115286,-0.276054,-0.028740,-0.930010,0.366409,0.006462,0.020769,0.293076,-16.366333,-32.182579,10.334076,,,,,,
1487811307.066865,-3.113929,1.209139,-2.115739,-1.044120,-2.079510,-0.175575,-0.009787,-0.935312,0.353690,-0.018411,0.050134,0.302057,-15.614838,-31.957586,11.084106,,,,,,
1487811307.086843,3.120855,1.238512,-2.109875,-1.704648,-2.236139,-0.063394,0.006764,-0.945300,0.326133,0.011058,0.013598,0.227715,-15.614838,-31.957586,11.084106,,,,,,
,,,,,,,,,,,,,,,,37.782393,-122.391584,12.640411,0.000000,23.203125,1487811307.002079
1487811307.106863,3.064966,1.279002,-2.103649,-2.220130,-2.684506,0.056274,0.022022,-0.957729,0.286827,0.056454,-0.018604,0.157676,-15.092422,-32.483253,11.162506,,,,,,
1487811307.126852,3.001386,1.327692,-2.096338,-2.537158,-2.865781,0.217762,0.033639,-0.970595,0.238354,0.078970,-0.052018,0.196262,-13.672745,-33.461617,10.344513,,,,,,
1487811307.146872,2.927643,1.378810,-2.075903,-2.558638,-2.558117,0.227482,0.040513,-0.981627,0.186459,0.037643,-0.055543,0.262211,-13.075317,-33.913506,9.672699,,,,,,
1487811307.166861,2.823452,1.429772,-2.018115,-2.646746,-2.321083,0.218750,0.043966,-0.990073,0.133504,0.079416,-0.065119,0.213206,-13.078064,-34.364967,8.699951,,,,,,
1487811307.186880,2.618355,1.483133,-1.859429,-2.910846,-2.415833,0.304579,0.043748,-0.996160,0.075837,0.127089,-0.087473,0.164763,-13.078064,-34.364967,8.699951,,,,,,
1487811307.206869,1.927347,1.530363,-1.215214,-3.023744,-2.354331,0.453828,0.037880,-0.999183,0.014109,0.139381,-0.089822,0.153508,-12.105118,-34.668007,7.652924,,,,,,
1487811307.226889,0.539835,1.518466,0.131429,-2.768183,-1.897834,0.554092,0.026885,-0.998631,-0.044868,0.109299,-0.108440,0.186333,-12.410553,-35.496468,5.031616,,,,,,
1487811307.246877,0.143181,1.473902,0.497987,-2.405942,-1.395706,0.538864,0.013804,-0.995309,-0.095753,0.083364,-0.098685,0.149784,-12.412247,-35.723152,3.907745,,,,,,
1487811307.266897,-0.000980,1.428051,0.614930,-2.345541,-1.484345,0.532747,-0.000139,-0.989829,-0.142261,0.118639,-0.085153,0.067264,-12.863815,-35.874840,2.332825,,,,,,
1487811307.286886,-0.082671,1.379913,0.665949,-2.408766,-1.587866,0.526474,-0.015667,-0.981837,-0.189079,0.096417,-0.055913,0.090461,-12.863815,-35.874840,2.332825,,,,,,
1487811307.306906,-0.137262,1.333382,0.692842,-2.170076,-1.272634,0.550704,-0.032181,-0.971949,-0.232978,0.028199,-0.034734,0.086417,-13.314789,-35.950966,1.132507,,,,,,
1487811307.326895,-0.171710,1.295052,0.711485,-1.659247,-0.509085,0.502568,-0.046521,-0.962223,-0.268260,-0.050327,0.028049,0.059962,-13.840164,-35.803551,-1.119019,,,,,,
1487811307.346915,-0.182475,1.269393,0.723375,-0.970301,0.317737,0.305846,-0.053869,-0.954921,-0.291932,-0.097864,0.081248,0.001710,-14.516174,-35.953331,-1.644287,,,,,,
1487811307.366904,-0.172166,1.256678,0.727177,-0.447267,0.929725,0.114698,-0.052933,-0.951069,-0.304410,-0.091339,0.098027,-0.043445,-14.664459,-35.504677,-2.696747,,,,,,
1487811307.386923,-0.156801,1.252169,0.732472,-0.077343,0.949923,0.135754,-0.048919,-0.949666,-0.309420,-0.003648,0.040792,-0.202131,-14.664459,-35.504677,-2.696747,,,,,,
1487811307.406912,-0.153095,1.252342,0.742648,0.049465,0.521068,0.156743,-0.047747,-0.949721,-0.309437,-0.006712,0.039717,-0.166439,-14.140442,-35.656136,-3.145203,,,,,,
1487811307.426932,-0.152417,1.251516,0.750223,-0.060084,0.357748,0.093535,-0.047656,-0.949462,-0.310245,-0.063397,0.042265,-0.081601,-14.667160,-35.956017,-3.594482,,,,,,
1487811307.446921,-0.144932,1.250779,0.750804,0.009904,0.466767,-0.034636,-0.045434,-0.949230,-0.311284,-0.067893,0.054836,-0.046733,-15.040771,-35.655815,-3.821564,,,,,,
1487811307.466939,-0.129655,1.253738,0.748635,0.237895,0.799985,-0.043740,-0.040310,-0.950157,-0.309156,-0.027790,0.022590,-0.041918,-14.590393,-35.581474,-3.821259,,,,,,
1487811307.486928,-0.113674,1.262401,0.751650,0.550019,0.976755,0.017736,-0.034429,-0.952822,-0.301571,0.008428,0.010409,-0.093189,-14.590393,-35.581474,-3.821259,,,,,,
1487811307.506948,-0.102163,1.274298,0.757055,0.583950,0.720164,-0.000093,-0.029797,-0.956365,-0.290650,0.004453,0.016210,-0.093521,-14.666672,-35.806816,-4.120239,,,,,,
1487811307.526937,-0.092372,1.283134,0.756570,0.335425,0.311474,-0.073240,-0.026170,-0.958910,-0.282502,0.000733,0.001741,-0.059569,-14.216949,-35.882149,-3.894196,,,,,,
1487811307.546957,-0.086880,1.286383,0.753187,0.077220,0.019379,-0.048769,-0.024347,-0.959826,-0.279536,0.017237,-0.025189,-0.022954,-14.589920,-35.506142,-3.596619,,,,,,
1487811307.566946,-0.081866,1.286997,0.747772,0.046470,-0.023387,-0.007791,-0.022897,-0.959998,-0.279068,0.012064,-0.014229,-0.001419,-14.441376,-35.806252,-3.519897,,,,,,
1487811307.586935,-0.082971,1.289375,0.749491,0.172737,0.056247,0.020312,-0.023016,-0.960662,-0.276766,0.001837,0.003112,-0.002027,-14.441376,-35.806252,-3.519897,,,,,,
1487811307.606955,-0.083510,1.293365,0.751533,0.254811,0.070782,0.000086,-0.022846,-0.961762,-0.272931,0.000522,0.015153,-0.004580,-14.367432,-36.031136,-3.368683,,,,,,
1487811307.626944,-0.083214,1.298468,0.751889,0.239355,0.006977,-0.025776,-0.022357,-0.963147,-0.268044,0.002963,0.008451,0.008431,-14.440292,-35.581367,-3.596008,,,,,,
1487811307.646963,-0.081360,1.302658,0.748858,0.094048,-0.106823,-0.015093,-0.021531,-0.964266,-0.264061,0.019075,-0.007994,0.020317,-14.290985,-35.805351,-2.769684,,,,,,
1487811307.666952,-0.081928,1.304860,0.746640,-0.046422,-0.156897,0.015026,-0.021508,-0.964847,-0.261931,0.012093,-0.009823,0.039351,-14.666519,-35.880241,-3.069855,,,,,,
1487811307.686972,-0.083839,1.305299,0.746060,-0.091521,-0.104187,0.004602,-0.021973,-0.964962,-0.261468,0.000748,0.007031,0.032891,-14.666519,-35.880241,-3.069855,,,,,,
1487811307.706960,-0.085212,1.306139,0.746605,0.003719,0.012385,-0.012652,-0.022263,-0.965182,-0.260630,-0.004974,0.015918,0.030161,-14.515884,-35.804680,-2.545013,,,,,,
1487811307.726980,-0.083271,1.308756,0.746134,0.087347,0.113998,-0.036143,-0.021547,-0.965863,-0.258154,-0.002730,0.016858,0.026938,-14.591415,-35.880013,-2.844757,,,,,,
1487811307.746969,-0.079524,1.310591,0.744815,0.082026,0.104379,-0.016832,-0.020438,-0.966337,-0.256466,0.010871,0.005934,0.004024,-14.439835,-35.580025,-2.696014,,,,,,
1487811307.766989,-0.072510,1.311474,0.738696,-0.005667,-0.008915,-0.018820,-0.018577,-0.966564,-0.255752,0.012855,0.008907,0.004455,-14.215546,-35.730247,-2.619965,,,,,,
1487811307.786978,-0.066998,1.310662,0.731997,-0.112753,-0.093711,-0.022303,-0.017220,-0.966356,-0.256633,0.012154,0.003053,0.008647,-14.215546,-35.730247,-2.619965,,,,,,
1487811307.806998,-0.066409,1.309410,0.729704,-0.113000,-0.058678,-0.015297,-0.017149,-0.966033,-0.257850,0.000395,0.003859,0.018074,-13.989990,-35.581139,-2.995361,,,,,,
1487811307.826987,-0.066299,1.309193,0.729729,-0.052009,0.068203,-0.022115,-0.017134,-0.965977,-0.258061,-0.005754,0.009510,0.020039,-14.365372,-35.655586,-2.995544,,,,,,
1487811307.847006,-0.062496,1.309610,0.729063,0.040922,0.190023,-0.005331,-0.016128,-0.966084,-0.257723,0.001006,0.007756,-0.005628,-14.365097,-35.580925,-3.220917,,,,,,
1487811307.866995,-0.058244,1.309131,0.728108,0.045632,0.123169,-0.002314,-0.015059,-0.965960,-0.258251,0.002745,0.005969,-0.021549,-13.766235,-35.806816,-3.218872,,,,,,
1487811307.887015,-0.057672,1.307978,0.728093,-0.048279,-0.016719,-0.010328,-0.014975,-0.965662,-0.259371,-0.004800,0.008508,-0.006284,-13.766235,-35.806816,-3.218872,,,,,,
1487811307.907004,-0.059137,1.306426,0.728563,-0.101381,-0.043711,-0.020767,-0.015443,-0.965257,-0.260845,-0.007567,0.007265,0.007976,-14.291595,-35.881020,-3.219299,,,,,,
1487811307.927022,-0.058702,1.304535,0.727915,-0.096518,0.015769,-0.007670,-0.015437,-0.964761,-0.262673,-0.005666,0.001337,0.007760,-13.766205,-35.806694,-3.143890,,,,,,
1487811307.947011,-0.058555,1.303130,0.728706,-0.051060,0.075626,-0.017917,-0.015478,-0.964391,-0.264028,-0.009928,0.011006,0.001303,-13.990326,-35.656029,-2.919983,,,,,,
1487811307.967031,-0.056061,1.301980,0.727793,0.004386,0.073981,-0.013469,-0.014882,-0.964086,-0.265174,-0.000087,0.007177,-0.017038,-14.065292,-35.581932,-3.595459,,,,,,
1487811307.987020,-0.053618,1.301185,0.726138,0.032499,0.016895,-0.012643,-0.014275,-0.963875,-0.265974,0.003121,0.004417,-0.024676,-14.065292,-35.581932,-3.595459,,,,,,
1487811308.007040,-0.052678,1.300701,0.724966,-0.016318,-0.021757,-0.006944,-0.014049,-0.963745,-0.266453,0.000026,-0.005905,-0.007518,-13.990097,-35.581474,-3.220337,,,,,,
1487811308.027029,-0.053033,1.299858,0.724897,-0.065451,-0.013697,-0.002921,-0.014187,-0.963520,-0.267259,-0.003834,-0.005092,0.004167,-14.063904,-35.356148,-3.071594,,,,,,
1487811308.047049,-0.053461,1.298682,0.725371,-0.067801,0.021325,-0.014045,-0.014362,-0.963205,-0.268384,-0.009350,0.001321,0.003949,-13.990173,-35.581703,-3.370361,,,,,,
1487811308.067038,-0.052498,1.297453,0.724744,-0.018666,0.020716,-0.039483,-0.014165,-0.962874,-0.269580,-0.009242,0.006972,-0.012616,-14.215057,-35.581032,-3.145691,,,,,,
1487811308.087028,-0.049319,1.296927,0.721454,0.035922,-0.006405,-0.044301,-0.013333,-0.962732,-0.270130,0.000882,-0.000220,-0.017865,-14.215057,-35.581032,-3.145691,,,,,,
1487811308.107017,-0.045682,1.297781,0.717651,0.023083,-0.004401,-0.034773,-0.012313,-0.962962,-0.269355,0.008499,-0.010060,0.006171,-14.139801,-35.506477,-3.370972,,,,,,
,,,,,,,,,,,,,,,,37.782341,-122.391908,12.616760,0.340000,117.773438,1487811308.002078
1487811308.127037,-0.041699,1.298384,0.713718,-0.031402,0.000413,-0.011543,-0.011216,-0.963125,-0.268822,0.014726,-0.014536,0.013542,-13.989197,-35.431038,-2.921112,,,,,,
1487811308.147026,-0.039451,1.297480,0.711095,-0.073811,-0.038182,-0.000504,-0.010646,-0.962881,-0.269716,0.014217,-0.014429,0.000399,-13.840179,-35.581932,-3.370148,,,,,,
1487811308.167046,-0.038505,1.295972,0.709218,-0.056657,-0.049706,-0.002448,-0.010447,-0.962473,-0.271177,0.007075,-0.003256,-0.004855,-13.990555,-35.656700,-3.369995,,,,,,
1487811308.187035,-0.038765,1.295435,0.708430,0.037190,-0.044633,-0.012917,-0.010537,-0.962327,-0.271691,-0.002707,0.002885,-0.014381,-13.990555,-35.656700,-3.369995,,,,,,
1487811308.207054,-0.038888,1.296899,0.708728,0.055697,0.047880,-0.004484,-0.010516,-0.962724,-0.270281,-0.005551,-0.000746,0.016192,-13.914963,-35.507271,-3.670624,,,,,,
1487811308.227043,-0.038176,1.298279,0.709650,0.007335,0.087772,0.025780,-0.010273,-0.963096,-0.268960,0.006138,-0.006722,0.015893,-13.990524,-35.656593,-3.294983,,,,,,
1487811308.247063,-0.038164,1.297814,0.710787,-0.007073,0.012266,0.032063,-0.010287,-0.962971,-0.269408,0.008868,0.005940,-0.018785,-14.215012,-35.580925,-3.070679,,,,,,
1487811308.267052,-0.040104,1.296716,0.711827,0.000003,-0.078963,0.020483,-0.010852,-0.962674,-0.270444,0.003558,0.011030,-0.021456,-14.065170,-35.581596,-3.370483,,,,,,
1487811308.287071,-0.042944,1.296843,0.713375,0.011502,-0.040631,0.005080,-0.011615,-0.962709,-0.270290,-0.008695,0.008302,0.009563,-14.065170,-35.581596,-3.370483,,,,,,
1487811308.307060,-0.044219,1.297948,0.714933,0.034379,0.046630,-0.005597,-0.011912,-0.963007,-0.269212,-0.009588,0.003565,0.017228,-14.065826,-35.731255,-3.144714,,,,,,
1487811308.327080,-0.042935,1.298989,0.714880,0.044980,0.059470,-0.013197,-0.011523,-0.963287,-0.268225,-0.001660,0.008102,0.002463,-13.464813,-35.507484,-3.369934,,,,,,
1487811308.347069,-0.041474,1.299287,0.713593,0.024220,-0.027780,0.004955,-0.011120,-0.963367,-0.267955,0.012813,0.000416,-0.012196,-13.540070,-35.582039,-3.144684,,,,,,
1487811308.367088,-0.042667,1.299411,0.713985,-0.005566,-0.043975,0.017878,-0.011434,-0.963400,-0.267822,0.001195,0.000067,0.006455,-13.915863,-35.731590,-3.219482,,,,,,
1487811308.387077,-0.044732,1.299595,0.715701,-0.022976,0.002579,0.023613,-0.011979,-0.963450,-0.267621,-0.000228,-0.000066,0.016492,-13.915863,-35.731590,-3.219482,,,,,,
1487811308.407097,-0.046699,1.299478,0.718361,-0.029702,0.038592,0.048716,-0.012511,-0.963418,-0.267710,0.003340,-0.001349,0.007303,-13.915451,-35.656471,-3.144867,,,,,,
1487811308.427086,-0.049017,1.298793,0.721327,0.007821,0.016638,0.035246,-0.013164,-0.963235,-0.268339,-0.001439,0.009698,-0.014132,-14.065094,-35.581367,-3.220459,,,,,,
1487811308.447105,-0.050637,1.298872,0.723348,0.044113,0.024415,0.003255,-0.013595,-0.963256,-0.268241,-0.008500,0.015593,-0.007775,-14.140091,-35.581261,-3.220551,,,,,,
1487811308.467094,-0.051279,1.299573,0.724177,0.038967,-0.003235,0.005743,-0.013732,-0.963444,-0.267558,-0.001206,0.003224,-0.005071,-14.440552,-35.656029,-3.370667,,,,,,
1487811308.487114,-0.052911,1.299563,0.725430,-0.025950,-0.029295,0.019771,-0.014169,-0.963441,-0.267545,-0.001669,0.004518,0.005688,-14.440552,-35.656029,-3.370667,,,,,,
1487811308.507103,-0.055330,1.298783,0.727298,-0.046271,-0.017787,0.011034,-0.014858,-0.963232,-0.268261,-0.007862,0.009817,0.005382,-13.616211,-35.806923,-3.143677,,,,,,
1487811308.527122,-0.056612,1.298382,0.728720,0.019618,0.024211,-0.011721,-0.015224,-0.963124,-0.268627,-0.011327,0.015797,-0.003667,-13.690079,-35.581810,-3.144897,,,,,,
1487811308.547111,-0.054937,1.299369,0.727799,0.073870,0.056562,-0.042916,-0.014722,-0.963389,-0.267702,-0.009082,0.017482,0.000444,-14.514938,-35.580238,-2.921143,,,,,,
1487811308.567131,-0.051488,1.301096,0.725479,0.059908,0.068110,-0.036706,-0.013713,-0.963851,-0.266089,0.000193,0.003112,0.014075,-13.840073,-35.581596,-3.145142,,,,,,
1487811308.587120,-0.047883,1.302278,0.723105,0.000207,0.063335,-0.030415,-0.012699,-0.964165,-0.264999,0.001422,0.004662,0.018188,-13.840073,-35.581596,-3.145142,,,,,,
1487811308.607139,-0.043996,1.301708,0.719841,-0.047384,0.009846,-0.036246,-0.011693,-0.964014,-0.265596,0.005391,0.007745,-0.002044,-13.690079,-35.581810,-3.144897,,,,,,
1487811308.627129,-0.040311,1.299984,0.715513,-0.070498,-0.039187,-0.037805,-0.010781,-0.963554,-0.267297,0.009575,0.006157,-0.008262,-13.765839,-35.731697,-3.144257,,,,,,
1487811308.647148,-0.037797,1.298999,0.712419,-0.011005,-0.014266,-0.020908,-0.010145,-0.963290,-0.268272,0.005735,0.001513,-0.007867,-14.141647,-35.881355,-3.294067,,,,,,
1487811308.667137,-0.035614,1.299515,0.710680,0.035480,0.049842,-0.026959,-0.009541,-0.963428,-0.267796,-0.001140,0.004001,0.004628,-13.916122,-35.806252,-2.994110,,,,,,
1487811308.687157,-0.032702,1.300505,0.709205,0.032000,0.081643,-0.009261,-0.008730,-0.963693,-0.266870,0.003710,-0.004492,0.005700,-13.916122,-35.806252,-2.994110,,,,,,
1487811308.707146,-0.031568,1.300373,0.709036,-0.026220,0.008920,0.018195,-0.008432,-0.963658,-0.267007,0.005822,-0.009166,-0.009696,-13.991272,-35.806587,-3.294220,,,,,,
1487811308.727165,-0.033417,1.298883,0.709987,-0.066143,-0.071038,0.006344,-0.008973,-0.963259,-0.268425,-0.003554,-0.000090,-0.011574,-13.991013,-35.731926,-3.519592,,,,,,
1487811308.747154,-0.034779,1.297561,0.709723,-0.038398,-0.061213,-0.023565,-0.009383,-0.962903,-0.269685,-0.006761,0.006299,-0.002318,-14.066223,-35.806358,-3.219330,,,,,,
1487811308.767174,-0.033119,1.298248,0.708237,0.074861,0.057610,-0.020550,-0.008914,-0.963088,-0.269039,-0.001005,-0.001924,0.001873,-13.990448,-35.656364,-3.144989,,,,,,
1487811308.787163,-0.030260,1.300817,0.707389,0.126686,0.111125,-0.001917,-0.008069,-0.963776,-0.266589,0.003049,-0.003890,0.002673,-13.990448,-35.656364,-3.144989,,,,,,
1487811308.807182,-0.028320,1.302472,0.706770,0.047349,0.021261,-0.004157,-0.007507,-0.964216,-0.265010,0.005508,-0.002779,-0.003682,-13.764954,-35.581367,-2.920013,,,,,,
1487811308.827171,-0.027638,1.302433,0.705303,-0.027740,-0.060060,-0.020360,-0.007327,-0.964206,-0.265053,-0.000867,0.001209,0.004845,-13.764435,-35.432045,-3.370758,,,,,,
1487811308.847191,-0.027448,1.302150,0.703942,-0.026813,-0.047330,-0.001332,-0.007284,-0.964131,-0.265326,0.005469,-0.004741,0.010627,-13.766357,-35.807152,-3.443878,,,,,,
1487811308.867180,-0.028406,1.302645,0.705056,0.019431,0.041169,0.016827,-0.007525,-0.964262,-0.264843,-0.004056,-0.000734,0.012752,-13.466309,-35.807487,-3.368439,,,,,,
1487811308.887199,-0.028719,1.303553,0.706634,0.045974,0.064771,0.001664,-0.007583,-0.964503,-0.263965,-0.006409,0.010569,-0.000012,-13.466309,-35.807487,-3.368439,,,,,,
1487811308.907188,-0.027969,1.304043,0.706586,0.027165,0.015786,-0.011601,-0.007372,-0.964632,-0.263498,-0.003142,0.015749,-0.003699,-13.841232,-35.806709,-3.218994,,,,,,
1487811308.927208,-0.027407,1.303890,0.705774,-0.022684,-0.022865,-0.013361,-0.007228,-0.964592,-0.263649,-0.002645,0.018913,0.001991,-14.064697,-35.506248,-3.145844,,,,,,
1487811308.947197,-0.027778,1.302515,0.705053,-0.071434,-0.073199,0.001031,-0.007362,-0.964228,-0.264972,0.002937,0.016169,-0.006421,-13.766617,-35.881813,-3.218506,,,,,,
1487811308.967216,-0.030557,1.300526,0.705894,-0.076575,-0.104038,0.008895,-0.008157,-0.963699,-0.266867,-0.006003,0.011947,-0.005197,-14.067917,-36.106926,-3.592834,,,,,,
1487811308.987205,-0.033210,1.299572,0.706860,-0.032049,-0.054791,-0.019350,-0.008896,-0.963444,-0.267763,-0.013611,0.015888,0.010027,-14.067917,-36.106926,-3.592834,,,,,,
1487811309.007225,-0.032372,1.299957,0.705998,0.031337,0.034946,-0.031016,-0.008659,-0.963547,-0.267400,-0.008354,0.004181,0.008718,-13.766953,-35.956688,-3.143158,,,,,,
1487811309.027214,-0.029235,1.301234,0.703969,0.062049,0.067066,-0.034551,-0.007784,-0.963888,-0.266196,-0.000974,0.003148,0.003546,-13.916351,-35.806923,-3.444092,,,,,,
1487811309.047233,-0.025517,1.301945,0.701065,0.002608,0.023010,-0.023479,-0.006777,-0.964077,-0.265538,0.008944,-0.008229,0.001988,-13.766235,-35.806816,-3.218872,,,,,,
1487811309.067223,-0.023422,1.301398,0.698658,-0.042876,-0.037917,-0.002548,-0.006233,-0.963931,-0.266079,0.014412,-0.011899,-0.005162,-13.915985,-35.731926,-3.444489,,,,,,
1487811309.087249,-0.023273,1.300734,0.697802,-0.031253,-0.027210,0.009065,-0.006209,-0.963754,-0.266719,0.008452,-0.007956,0.002269,-13.915985,-35.731926,-3.444489,,,,,,
,,,,,,,,,,,,,,,,37.782340,-122.391905,14.620087,0.370000,117.421875,1487811309.002079
1487811309.107238,-0.023684,1.300623,0.698238,0.010067,0.013497,0.003308,-0.006321,-0.963725,-0.266824,0.000339,-0.001256,-0.001182,-13.916306,-35.806816,-3.369110,,,,,,
1487811309.127258,-0.023278,1.301118,0.698363,0.032320,0.038119,-0.007617,-0.006201,-0.963857,-0.266349,-0.002527,0.000340,0.000541,-13.916306,-35.806816,-3.369110,,,,,,
1487811309.147247,-0.022056,1.301921,0.697965,0.047248,0.027608,0.019221,-0.005859,-0.964070,-0.265582,0.009154,-0.008937,-0.004513,-13.841690,-35.881920,-3.368652,,,,,,
1487811309.167266,-0.022867,1.302642,0.699097,0.019683,0.000818,0.029089,-0.006058,-0.964262,-0.264883,0.005417,-0.000018,0.002523,-13.766693,-35.882042,-3.368530,,,,,,
1487811309.187254,-0.024947,1.302481,0.700822,-0.024841,-0.030342,0.013378,-0.006613,-0.964219,-0.265024,-0.004541,0.007951,0.002924,-13.766693,-35.882042,-3.368530,,,,,,
1487811309.207274,-0.026844,1.302225,0.702230,-0.011079,-0.007911,-0.005001,-0.007122,-0.964151,-0.265258,-0.010914,0.011865,0.009262,-13.992691,-36.106361,-3.142731,,,,,,
1487811309.227263,-0.026910,1.302671,0.702687,0.033415,0.037071,-0.011860,-0.007128,-0.964269,-0.264828,-0.009504,0.010870,0.004635,-13.765564,-35.657036,-3.369659,,,,,,
1487811309.247283,-0.025430,1.303457,0.702157,0.051446,0.048903,-0.007697,-0.006717,-0.964477,-0.264081,-0.000561,0.003830,-0.004641,-13.841202,-35.806587,-3.144012,,,,,,
1487811309.267272,-0.024523,1.304228,0.701798,0.028222,0.017920,-0.013749,-0.006459,-0.964681,-0.263343,-0.002757,0.007268,0.000877,-13.391876,-35.957024,-2.992584,,,,,,
1487811309.287292,-0.023669,1.303962,0.700750,-0.031213,-0.030388,0.003782,-0.006241,-0.964610,-0.263605,0.006454,-0.006886,-0.005346,-13.391876,-35.957024,-2.992584,,,,,,
1487811309.307281,-0.024741,1.302919,0.700985,-0.034326,-0.043154,0.003942,-0.006548,-0.964335,-0.264604,-0.002714,0.004130,-0.005308,-14.141571,-35.881142,-3.144073,,,,,,
1487811309.327300,-0.025565,1.302813,0.701531,0.022915,0.013629,-0.015837,-0.006769,-0.964307,-0.264701,-0.010840,0.008344,-0.000116,-13.917801,-36.106804,-3.367615,,,,,,
1487811309.347289,-0.023313,1.303928,0.699947,0.055752,0.055340,-0.039755,-0.006147,-0.964601,-0.263641,-0.004915,0.004412,0.005736,-13.767105,-35.957146,-3.443146,,,,,,
1487811309.367309,-0.018803,1.304781,0.696285,0.031369,0.022190,-0.009536,-0.004943,-0.964826,-0.262842,0.018538,-0.010333,-0.006384,-13.767441,-36.032036,-3.367767,,,,,,
1487811309.387298,-0.018043,1.304638,0.695268,-0.026941,-0.035665,0.012383,-0.004746,-0.964788,-0.262984,0.009751,-0.007502,-0.000489,-13.767441,-36.032036,-3.367767,,,,,,
1487811309.407316,-0.018977,1.304058,0.695719,-0.038824,-0.010281,0.002413,-0.005002,-0.964636,-0.263539,-0.001285,-0.000711,0.006611,-13.316284,-35.807594,-3.293213,,,,,,
1487811309.427305,-0.017801,1.303878,0.694848,0.020637,0.031653,-0.009710,-0.004695,-0.964588,-0.263719,0.003459,0.003529,-0.002852,-13.842056,-35.956917,-3.368256,,,,,,
1487811309.447325,-0.015910,1.305112,0.693996,0.073727,0.058642,0.006074,-0.004177,-0.964913,-0.262536,0.007321,-0.002250,0.002374,-13.542801,-36.107368,-3.367065,,,,,,
1487811309.467314,-0.015412,1.306228,0.694504,0.032288,0.035985,0.008387,-0.004030,-0.965205,-0.261462,-0.000700,0.005763,0.004000,-13.992279,-36.031242,-3.068085,,,,,,
1487811309.487334,-0.015283,1.306281,0.694580,-0.011142,-0.005797,0.008813,-0.003995,-0.965219,-0.261411,0.004056,0.001657,-0.001437,-13.992279,-36.031242,-3.068085,,,,,,
1487811309.507324,-0.015977,1.305970,0.695218,-0.000550,0.000657,0.017287,-0.004182,-0.965138,-0.261708,0.003312,0.003026,-0.003139,-13.843109,-36.181694,-3.217102,,,,,,
1487811309.527343,-0.018395,1.306150,0.697940,0.021689,0.021018,0.020288,-0.004811,-0.965185,-0.261524,-0.008662,0.005850,-0.002575,-13.090836,-35.732704,-3.143250,,,,,,
1487811309.547332,-0.019302,1.306445,0.699252,0.019615,0.024211,-0.008548,-0.005043,-0.965262,-0.261235,-0.007118,0.005683,-0.002224,-13.768082,-36.181694,-3.142029,,,,,,
1487811309.567352,-0.018367,1.306677,0.698701,0.015389,0.014612,0.000099,-0.004795,-0.965323,-0.261015,0.004367,-0.000971,-0.004381,-13.917725,-36.106590,-3.217590,,,,,,
1487811309.587341,-0.018990,1.306967,0.699355,0.015486,-0.009829,0.027083,-0.004952,-0.965398,-0.260732,0.004769,-0.001093,0.000310,-13.917725,-36.106590,-3.217590,,,,,,
1487811309.607360,-0.021902,1.307137,0.702024,-0.004678,-0.021679,0.022919,-0.005708,-0.965443,-0.260552,-0.006026,0.005696,0.004708,-13.542328,-36.032036,-3.142426,,,,,,
1487811309.627349,-0.023690,1.307073,0.703379,-0.002488,-0.016323,-0.008066,-0.006175,-0.965426,-0.260604,-0.009664,0.009417,0.005752,-13.391617,-35.882378,-3.217926,,,,,,
1487811309.647368,-0.023353,1.307841,0.702993,0.036803,0.013756,-0.020078,-0.006070,-0.965626,-0.259864,-0.006870,0.007191,0.013679,-13.916504,-35.881248,-2.993744,,,,,,
1487811309.667357,-0.022177,1.308962,0.702166,0.033572,0.015841,-0.011580,-0.005740,-0.965917,-0.258789,-0.000379,0.003347,0.010864,-14.217117,-36.030464,-2.768433,,,,,,
1487811309.687376,-0.022345,1.309606,0.702545,-0.006978,0.012284,0.006485,-0.005770,-0.966083,-0.258166,-0.003630,0.000248,0.013980,-14.217117,-36.030464,-2.768433,,,,,,
1487811309.707366,-0.022272,1.309312,0.702846,-0.018755,0.021742,-0.001138,-0.005757,-0.966007,-0.258450,-0.001857,0.002735,0.001309,-13.766205,-35.806694,-3.143890,,,,,,
1487811309.727386,-0.021574,1.308907,0.702598,0.001561,0.016619,-0.007411,-0.005585,-0.965903,-0.258846,-0.001022,0.001715,-0.011982,-13.992279,-36.031242,-3.068085,,,,,,
1487811309.747375,-0.020059,1.308691,0.701195,0.009127,0.005017,-0.015769,-0.005197,-0.965847,-0.259062,0.001642,-0.000889,-0.010195,-13.918152,-36.181694,-3.292236,,,,,,
1487811309.767394,-0.018452,1.308619,0.699668,0.016563,0.004012,-0.006141,-0.004782,-0.965828,-0.259140,0.005698,-0.000359,-0.011017,-13.917801,-36.106804,-3.367615,,,,,,
1487811309.787383,-0.017759,1.308828,0.699169,0.028194,0.008341,0.015160,-0.004599,-0.965882,-0.258942,0.006125,-0.003753,-0.009140,-13.917801,-36.106804,-3.367615,,,,,,
1487811309.807403,-0.019423,1.309198,0.700786,0.020879,-0.012955,0.015423,-0.005023,-0.965978,-0.258576,-0.004254,0.002980,-0.002166,-13.841232,-35.806709,-3.218994,,,,,,
1487811309.827392,-0.021299,1.309559,0.702260,0.008184,-0.017291,-0.008010,-0.005501,-0.966071,-0.258218,-0.010994,0.007087,0.007760,-13.767258,-36.031471,-2.992767,,,,,,
1487811309.847381,-0.020394,1.310050,0.701613,0.023785,0.034855,-0.000126,-0.005257,-0.966198,-0.257748,0.004448,-0.002415,0.003246,-13.841309,-35.806923,-3.369019,,,,,,
1487811309.867399,-0.020158,1.310854,0.702222,0.055759,0.033000,0.011720,-0.005181,-0.966405,-0.256973,0.000801,0.006642,-0.005219,-13.542023,-35.957253,-3.292786,,,,,,
1487811309.887388,-0.020630,1.311521,0.702862,0.021938,-0.007630,0.005763,-0.005289,-0.966576,-0.256325,0.000009,0.004357,-0.003684,-13.542023,-35.957253,-3.292786,,,,,,
